timestamp, ax, ay, az, gx, gy, gz
0, -4899, -8108, 17872, 1494, -20249, 8184
10, -8093, -8086, 14383, 1842, -17746, 10544
20, -8224, -8038, 10784, 1600, -14357, 11300
30, -9043, -6544, 10766, 3530, -5340, 7683
40, -7904, -4489, 9019, 3349, -2528, 6500
50, -4179, -1952, 5981, 2688, -1756, 5718
60, -3488, -60, 5277, 1347, -2623, 4675
70, -2077, 227, 2163, -816, -4743, 3288
80, 1776, -617, 1933, -1328, -6002, 3894
90, 3833, -2788, 3213, -237, -4616, 3796
100, 2511, -1280, 52, 5747, 403, 1321
110, 1731, -151, 1359, 4961, -155, 685
120, 6227, -781, 3672, 4796, -6964, 4994
130, 11195, -3148, 6384, 6442, -3636, 7237
140, 15201, -2777, 6881, 7590, -3290, 7983
150, 18306, -625, 4573, 3562, -3930, 2750
160, 16347, -4986, 14540, -1841, -6259, -2998
170, 6260, -4673, 23585, -4468, -9974, -7026
180, 4414, -9624, 32764, -969, -20418, 1193
190, 12615, -14836, 32764, 2788, -22800, 10583
200, 13638, -18098, 31260, 6512, -23870, 18992
210, 18548, -21010, 30509, 8459, -25555, 24725
220, 28113, -22755, 32764, 3674, -23937, 19554
230, 14704, -19059, 32764, 3497, -18984, 9425
240, 8535, -5665, 31422, 6156, -12031, 4297
250, 10017, -7218, 26065, 5972, -8750, 3486
260, 11710, -6947, 20685, 5272, -6842, 1811
270, 8378, -2412, 16660, 1090, -4110, -3710
280, 7527, -788, 15764, -111, -4444, -5442
290, 5202, 217, 13997, 281, -6207, -7413
300, 2829, 554, 12146, 954, -8582, -8810
310, -1616, 746, 8908, 410, -16731, -8621
320, -3170, 107, 8220, -1044, -23430, -7560
330, -4594, -357, 6396, -2470, -30757, -6610
340, -2897, 186, 333, -5785, -32766, -7069
350, -250, -2611, 1503, -5745, -32767, -9495
360, 3819, 2131, -7734, 388, -32766, -10716
370, -5519, 2623, -11436, 7524, -32767, -8013
380, -6409, -4763, -8643, 3835, -29379, 82
390, -3444, -14211, 1887, -1930, -10226, 8876
400, -1191, -11123, 2306, -1094, 6786, 9706
410, 3238, 190, -332, -5739, 7080, -1426
420, 4912, -271, 990, -10768, 4749, -5316
430, 5435, -3782, 2681, -13079, 4585, -7187
440, 11597, -3565, -2685, -11438, 3400, -8933
450, 15780, -2411, -4392, -13531, 5489, -11043
460, 20588, -1874, -5368, -17661, 11950, -13750
470, 32748, -6777, -18533, -27769, 31909, -22791
480, 31645, -4476, -12947, -30585, 32736, -30639
490, 2150, 7260, 2226, -25915, 26528, -28254
500, 16480, -7096, 32764, -31375, -4031, 11188
510, 32748, -22965, 32764, -20941, -12843, 31740
520, 32748, -27891, 32764, 2574, -12190, 32766
530, 32748, -28171, 14159, 27437, -8672, 32766
540, 32748, -29807, 4597, 22547, -12315, 12646
550, 29449, -22036, 3879, 10364, -8331, 371
560, 25626, -14872, 8674, 2494, -317, -3958
570, 18713, -7720, 17445, -1159, 7581, -5269
580, 12566, -7137, 17750, -1169, 4466, -6657
590, 8405, -7471, 17318, -1093, 1114, -6851
600, 6546, -6533, 14272, 20, -317, -5454
610, 5270, -4852, 9127, -807, 989, -3389
620, 4189, -4374, 6103, -2605, 2605, -2645
630, 4303, -3964, 3632, -5347, 3652, -1460
640, 3011, -1149, -559, -13298, 2381, -829
650, 2348, -1575, -676, -18170, 1155, -1565
660, 1990, -366, -293, -22856, 1161, -2608
670, -662, 534, 3341, -25626, 2157, -3219
680, -4727, 5599, 5844, -14965, -2195, 3077
690, -1924, 4200, 7028, -12211, 2100, 8424
700, -21, 4539, -804, -5138, 5989, 14958
710, 5876, 3690, -2919, -5182, 4394, 14738
720, 8820, 3068, -5944, -5133, 5247, 12376
730, 10252, 924, -5378, -4906, 6498, 8034
740, 12066, -3007, 1101, 1972, 4701, -1997
750, 13303, -3765, 770, 10274, 2896, -6198
760, 15957, -4978, -839, 19151, 877, -9968
770, 27327, -8863, 2224, 27338, -215, -13260
780, 32705, -22764, 7175, 32765, 7056, -30342
790, 22758, -28677, 13430, 32766, 10141, -32765
800, -626, -32385, 18848, 32766, 1041, -32766
810, 6020, -2895, 31318, 32765, -32734, -32766
820, 22926, 19764, 25356, 32766, -32766, -32317
830, 32748, 32748, -32524, 32766, -32719, -16915
840, 26430, 4243, 7738, -9536, 28322, 1043
850, 30600, 5392, 16442, -4614, 25237, -468
860, 23843, 6161, 15142, 4969, 12605, -4381
870, 12580, 6014, 4614, 4956, -490, -6162
880, 8284, 2357, 15302, -13213, 10, -6797
890, 4775, 829, 17188, -18923, 1081, -5103
900, 6236, -55, 13814, -18607, -1725, -3510
910, 7500, -1171, 7567, -14220, -2490, -3282
920, 4513, -1803, 7918, -11347, 998, -2989
930, -158, -3700, 4453, -6092, 6224, -2934
940, -636, -3125, 2537, -3656, 4804, -5012
950, 135, -2777, 852, -859, 3237, -4714
960, -2286, -1715, -207, 1493, 1842, -3261
970, -1370, 950, -6392, 2603, -4394, 2198
980, -266, 3324, -12610, -387, -6502, 4217
990, -770, 2571, -11023, -6559, -8109, 4729
1000, 1304, -922, -57, -13856, -13277, 3270
1010, 1608, -4941, 4141, -12650, -13580, 1207
1020, 1090, -6049, 1013, -7736, -11700, -1405
1030, 6777, -5481, -3356, -829, -5119, -5097
1040, 13233, -4235, -4959, 388, 31, -7025
1050, 22904, -1060, -4882, 562, 4849, -11084
1060, 22352, 2775, -6909, -217, 7332, -16865
1070, 32748, 4853, 1536, -926, -7423, -1716
1080, 32748, 7139, -478, 5589, -9635, 20231
1090, 32748, -2670, 18018, 9291, -9313, 31875
1100, 32748, 5012, 16808, 24311, 4052, 21462
1110, 32748, 6943, 15864, 21612, -4304, 12226
1120, 32748, 4588, 13049, 21841, -6755, 6979
1130, 32748, 5169, 14511, 21233, -3204, 3475
1140, 23769, 6977, 7402, 17737, -2454, 156
1150, 16916, 6664, 7678, 14292, 387, -200
1160, 11295, 6999, 3759, 7602, -264, -804
1170, 10178, 7862, 4596, 2747, 506, -1282
1180, 8423, 10488, 6425, -1820, 3508, -2075
1190, 6418, 10016, 9967, -4929, 4452, -2429
1200, 3260, 7995, 9826, -4619, 170, -1993
1210, 3047, 6716, 7997, -2679, -1895, -2029
1220, 3882, 4631, 7091, -911, -2232, -2393
1230, 2063, 1732, 4969, 880, 835, -4844
1240, 449, 904, 3753, 1122, 3077, -6106
1250, -776, 592, 2392, 1344, 5826, -6699
1260, -1908, 499, 1035, 1337, 8208, -6548
1270, -874, -241, -471, -77, 9300, -4657
1280, -31, -1119, -663, -1587, 9081, -4353
1290, -754, -3124, 1019, -2990, 8320, -5008
1300, 252, -5036, 984, -3048, 5818, -5749
1310, 7853, -2404, -5258, -2368, -2168, -10300
1320, 6164, -2610, -5893, -5272, -3688, -14282
1330, 6541, -601, -7890, -5809, -4479, -14323
1340, 19625, 3080, -11109, -9356, -9203, -11947
1350, 25951, 4937, -16518, -10085, -15118, -15518
1360, 32748, 4035, -19200, -8911, -26594, -19605
1370, 32748, 26356, -24059, 985, -31698, -11579
1380, 32748, 23158, -21513, 2208, -22202, 1945
1390, 32748, 13048, -7902, -4465, -12160, 6753
1400, 32748, 14297, 20947, 4355, 2885, 3456
1410, 32748, 24042, 10335, 14017, 2663, 3167
1420, 27646, 30430, 3049, 18084, 12712, 1110
1430, 22718, 3384, 32764, 19888, 22792, -9
1440, 17233, 1478, 23189, 28663, 14321, -3068
1450, 12161, 7777, 7318, 27675, 4719, -6747
1460, 11681, 5940, 2564, -111, -6229, -4649
1470, 6607, 3938, 6289, -8949, -6508, -3543
1480, 3369, 2340, 7274, -11493, -6894, -2180
1490, 1817, -125, 6571, -10797, -6976, -369
1500, 634, 561, 4672, -8016, -31, -945
1510, 554, 433, 3054, -5884, -1574, -1424
1520, -434, 535, 618, -4571, -2562, -654
1530, -677, -364, -709, -4421, -2368, 1162
1540, -72, -2363, -925, -8499, -3486, 1442
1550, -325, -2671, 29, -10914, -3549, 230
1560, -2746, 571, 1164, -11983, -1755, -353
1570, 6726, 4146, -2069, -12515, -849, 3165
1580, 5968, 1950, 3361, -15355, 4810, 924
1590, 7057, 1863, 1972, -14809, 8215, -2956
1600, 2709, 2094, 334, -13783, 11901, -5755
1610, -5327, 4736, 649, -8120, 11971, -4645
1620, -5295, -643, 6678, -9236, 3303, -1707
1630, 3776, 4959, 2014, 5913, -8185, 7852
1640, 27783, 17280, -24358, 3901, -3811, 10985
1650, 32748, 20961, -22271, -8792, 7272, 8568
1660, 32748, 27415, -16919, -13251, 6506, -83
1670, 31354, 11878, -5624, -9139, -19505, 2792
1680, 25128, 8659, -4787, -3388, -15671, 16786
1690, 32748, 1911, 2050, -923, -6965, 29708
1700, 32748, 3903, 11159, 10508, 28926, 20554
1710, 24455, 21723, -954, 5663, 4172, 14981
1720, 32748, 8262, 18513, 549, -10875, 11030
1730, 17814, 10715, 3673, 8507, 148, 6832
1740, 13952, 8620, 9249, 17998, -2617, 3183
1750, 14300, 4099, 8091, 15485, -5691, 3465
1760, 14306, 1225, 6435, 11734, -10537, 1850
1770, 12741, 2469, 8023, -4220, -12486, -4696
1780, 9066, 4514, 14559, -11387, -6689, -5941
1790, 5262, 4323, 21874, -14996, -3657, -7107
1800, -1017, 4219, 17466, -8889, -6460, -9468
1810, -481, 2672, 7167, -7251, -7517, -10280
1820, -4046, 283, 5817, -12100, -5724, -11965
1830, -6598, 417, -9597, -13942, -961, -13434
1840, -1270, -106, -2549, -24212, -2057, -9248
1850, 14033, -9154, 1105, -9249, 5503, -1417
1860, 21670, -4507, 5823, -2324, 7351, 386
1870, 26371, 7106, -3119, 5134, 12814, -13611
1880, 26892, 11348, -3180, 199, 13269, -22259
1890, 23351, 14360, 230, -5977, 11162, -27669
1900, 14560, 21302, 2128, -3908, 2070, -25828
1910, 15085, 25599, -2215, 1043, -7602, -20291
1920, 19612, 30272, -4725, 2140, -17467, -14622
1930, 21599, 32706, -4424, 123, -22852, -10609
1940, 32748, 21817, 8537, -1486, -12889, -2757
1950, 32748, 6653, 25334, 5950, 4176, -5784
1960, 32748, 4350, 19796, 19970, 26620, -14932
1970, 23378, 13488, 7694, 11866, 30282, -18305
1980, 11186, 11107, 12463, -3745, 15662, -12441
1990, 9378, 7380, 17342, -9410, 542, -4717
2000, 5748, 7829, 14159, -4629, -7610, -844
2010, 4961, 3151, 4315, 5595, -16349, -1217
2020, 3912, 2047, 447, 7746, -14258, -2576
2030, 190, 1158, -600, 8046, -9314, -2783
2040, -2413, 1292, -1540, 7361, -5272, -1183
2050, -3561, 3607, -2216, 873, -5086, 3748
2060, -1949, 3798, -1766, -3507, -7469, 6116
2070, -476, 3636, -1015, -6355, -9696, 7763
2080, 3374, 973, 152, -6853, -14220, 7703
2090, 4418, 773, -799, -5360, -14902, 6221
2100, 5646, 4251, 1879, -3604, -11935, 3423
2110, 2826, 5145, 2215, -1931, -10093, 1717
2120, 3867, 4869, 3441, -1203, -8920, 1135
2130, 4062, 4719, 3693, -820, -6222, -345
2140, -7140, 3794, -6113, -2607, -1728, -2970
2150, -8936, 5988, -13293, -5701, -9501, -1815
2160, -3987, 9530, -15422, -9961, -22419, -743
2170, 32748, 15472, -370, -11897, -23118, -3124
2180, 32748, 20617, -508, -1586, 855, -11233
2190, 19131, 25941, -13416, 9292, 7031, -15295
2200, 22839, 8524, -11181, 4210, -15667, -4699
2210, 17869, 8908, -11870, -276, -21931, 6341
2220, 16419, 5733, -11088, 4374, -6695, 14487
2230, 16566, 4702, -12236, 10457, 5610, 23841
2240, 32748, 6367, -19268, 15800, 19261, 31896
2250, 32748, 10021, -18505, 11669, 28931, 25167
2260, 32748, 15691, -11598, 2471, 32717, 18931
2270, 26976, 12862, 14858, -24041, 3168, 22143
2280, 26265, 8579, 23541, -24203, -16210, 22952
2290, 25562, 6335, 24857, -14390, -22940, 21568
2300, 27476, 10762, 24420, 130, -12585, 8261
2310, 10549, 6655, 25354, 2925, -1608, -7
2320, 3677, 2625, 19717, 6634, 1842, -832
2330, 8990, 1170, 3646, 8861, -2289, -819
2340, 7261, 1410, 231, 5565, -723, -2128
2350, 2961, 1435, -215, 1097, 110, -3287
2360, -2546, -794, 2920, -2602, -3609, -3637
2370, -3197, -1919, 3401, -1210, -5049, -3493
2380, -3102, -2148, 3265, 520, -5450, -3840
2390, -2729, -1563, 1711, 1871, -5407, -5674
2400, -2631, -1542, 1575, 3203, -5625, -6429
2410, -2522, -1609, 1019, 4617, -5909, -6721
2420, -1252, -1700, 455, 6367, -6431, -6322
2430, 2444, -2863, -1407, 10732, -7153, -4660
2440, 6201, -2768, -3933, 13651, -7061, -2820
2450, 10885, 879, -9215, 15397, -5613, -1008
2460, 18014, 10967, -18110, 2051, -682, -4070
2470, 25659, 15053, -18809, -11102, 3619, -7128
2480, 30672, 15978, -14093, -23321, 10245, -10195
2490, 32456, 14640, -6035, -28156, 10606, -14476
2500, 31331, 23444, -4538, -6477, -18227, -20679
2510, 32748, 29448, -10328, 7006, -27209, -18246
2520, 32748, 30161, -9790, 13718, -18914, -13741
2530, 32748, 12695, 2053, 19046, 29352, -15691
2540, 32208, 10231, 3145, 21527, 32766, -19312
2550, 27962, 8159, 6438, 21304, 32765, -20399
2560, 26630, 9904, 6881, 16129, 32762, -16983
2570, 23555, 11293, 5569, 8207, 30413, -12907
2580, 17541, 11576, 8034, 909, 21398, -9589
2590, 6241, 10835, 6030, 597, 2459, -4559
2600, 3009, 10437, 2805, 2772, -5803, -3895
2610, 3146, 10687, 483, 3878, -11864, -2930
2620, 3157, 8871, 1621, 3013, -13055, -1671
2630, -715, 4352, 2456, 2968, -6235, -1152
2640, -2257, 2865, 3410, 1822, -2980, -54
2650, -2051, 1935, 3488, -61, -2555, 1511
2660, -3027, 2002, 1678, -2191, -4525, 2645
2670, -3421, 870, 852, -5959, -13041, 5928
2680, -1167, -471, 82, -6896, -17226, 8209
2690, 2424, -1831, 50, -6894, -19299, 9748
2700, 9702, -297, -2792, -5533, -15598, 8770
2710, 10106, 1317, -1930, -5695, -12470, 4633
2720, 8936, 1942, -646, -5684, -9062, -256
2730, 10747, 2981, 6234, -5217, 6298, -7647
2740, -5713, 2169, 2389, -2455, 16054, -10058
2750, -14918, -706, -9177, -3921, 5859, -2046
2760, 20678, 12703, -9109, -19024, -32767, 2793
2770, 32748, 18141, -6391, -12657, -30264, 1644
2780, 32748, 29112, -17478, 9977, -7361, -1737
2790, 24595, 24995, -16803, 9293, 1205, 5052
2800, 22872, 17354, -13293, 4235, -313, 20674
2810, 29406, 9718, -14436, 4281, 3160, 32766
2820, 32748, 5361, -11614, 888, 12040, 32766
2830, 32748, 2380, -8968, -4979, 21150, 32766
2840, 32748, -1666, 169, -12328, 30280, 32063
2850, 32748, -3506, 25048, -11788, 21395, 11363
2860, 31659, -2884, 22898, -3363, 1006, 4347
2870, 23955, -504, 19123, 3689, -11331, 170
2880, 11724, 2313, 13004, 6770, -16911, -1781
2890, 10598, 3182, 12119, 5300, -13983, -1523
2900, 10013, 3636, 10930, 3868, -8135, -739
2910, 9548, 3911, 7608, 2662, -3733, -1218
2920, 6504, 4396, 4925, 2217, 33, -3594
2930, 2904, 4989, 2604, 2028, -180, -4630
2940, -311, 4168, 2412, 957, -1431, -5079
2950, -2195, -588, 2980, 241, -3761, -4731
2960, -2935, -2043, 2857, 776, -3182, -4833
2970, -3084, -2560, 2415, 1334, -2390, -4966
2980, -4026, -1540, 1409, 2683, -2025, -4847
2990, -3561, -1359, 1577, 3672, -3065, -4420
3000, -3389, -1514, 965, 5460, -4321, -4046
3010, -1220, -3132, -1960, 10776, -9057, -3812
3020, 1851, -4765, -5060, 14333, -12697, -4447
3030, 9583, -578, -20445, 17480, -15917, -5558
3040, 18654, -646, -27596, -6749, 1049, -1342
3050, 32370, 3135, -18969, -18134, 17255, 3817
3060, 32748, 11416, -14614, -21761, 22277, -4125
3070, 32748, 21323, -6193, -22344, 13781, -15348
3080, 32748, 32748, 7461, -6242, -16928, -17830
3090, 32748, 27763, 17041, 11275, -14541, -14929
3100, 32748, 22918, 4007, 29775, 7660, -15418
3110, 26824, 15949, -2526, 31826, 31511, -14954
3120, 28865, 12236, 2296, 24305, 32619, -14852
3130, 27224, 9779, 8256, 16017, 32762, -15647
3140, 24571, 9914, 10134, 7760, 23475, -12392
3150, 19078, 10233, 7554, 3024, 16402, -8657
3160, 13220, 10552, 5905, -885, 9700, -6912
3170, 8598, 10467, 4971, -3297, 3174, -5925
3180, 4658, 10139, 5895, -5596, -5463, -4779
3190, 2130, 7283, 5857, -5626, -5499, -4502
3200, -1283, 5096, 3559, -4381, -5355, -4656
3210, -5691, 2162, -676, -5075, -5975, -2647
3220, -6288, 1142, -1905, -7095, -8816, -60
3230, -6327, 130, -2592, -8961, -13863, 2995
3240, -1488, -2944, -2288, -10667, -22736, 9963
3250, 487, -3795, -2493, -10468, -23169, 12083
3260, 1858, -4349, -3100, -10015, -21870, 12608
3270, 3325, -3778, -2432, -8625, -16871, 10662
3280, 3115, -1543, -2366, -7024, -14985, 7933
3290, 2893, 325, -2522, -5705, -13783, 4779
3300, 3702, 1801, -1194, -5272, -12295, 2136
3310, 15647, 4709, 7548, -959, -2951, -5257
3320, -1169, 7697, -3995, 4007, 7792, -10604
3330, -9952, 10244, -13724, 712, 4894, -10087
3340, 8570, 13243, -14561, -18890, -25753, -4693
3350, 24401, 13395, -7729, -22547, -25237, -2664
3360, 29503, 16206, -5880, -16084, -6611, 1454
3370, 27491, 24847, -21687, -5977, 9047, 14897
3380, 30920, 20272, -20061, -12577, 58, 20292
3390, 32748, 16937, -18487, -15025, -2498, 28776
3400, 32748, 11548, -14671, -16299, 1883, 32635
3410, 32748, 229, -1547, -11952, 13547, 28689
3420, 32748, -2614, 3098, -5187, 14742, 26016
3430, 32748, -11027, 22247, 8602, 12614, 10822
3440, 31626, -11963, 23829, 17385, 1750, 6333
3450, 27265, -10234, 24160, 26660, -9112, 4445
3460, 12718, -7092, 20660, 32383, -16967, 694
3470, 6344, -2336, 13547, 23780, -28697, -1780
3480, 7225, -960, 13463, 13138, -22908, -1430
3490, 4491, 292, 13666, 4768, -8405, -67
3500, 7589, 3850, 3628, -486, 17069, 1984
3510, 6891, 5187, -3755, -2709, 20097, -1214
3520, 3631, 5671, -8237, -8345, 16874, -4503
3530, 1165, 5163, -8708, -14688, 6906, -6810
3540, -2456, 2311, 150, -15784, -16888, -6510
3550, -1228, 1567, 1438, -9310, -26777, -6709
3560, -508, 652, 987, -2370, -31599, -8115
3570, -1338, 677, 207, 6283, -29789, -11946
3580, -1376, 843, -77, 7459, -27036, -13620
3590, -1455, 840, -289, 7307, -23942, -14992
3600, -2047, 175, -129, 6425, -20818, -16023
3610, -2665, -460, -218, 4883, -14613, -16566
3620, -3294, -946, -1094, 5818, -10170, -14939
3630, -3425, -744, -3088, 8207, -5261, -11623
3640, 6134, 2933, -11727, 10279, 11696, -3508
3650, 32748, 28859, -12374, -6491, 32766, 23308
3660, 32748, 26692, 3117, -13994, 9883, -8655
3670, 32748, 19065, 16775, 2066, -6095, -11782
3680, 32748, 9254, 14793, 23702, 5909, -17107
3690, 24909, 11349, 809, 32765, 31433, -18048
3700, 24096, 11792, 1778, 31810, 31318, -17827
3710, 25131, 10441, 5648, 24510, 25923, -17157
3720, 19408, 9028, 8215, 6149, 20205, -10578
3730, 13595, 10842, 8954, 661, 16086, -8729
3740, 5191, 12635, 6406, -860, 10028, -8945
3750, 149, 12261, 5032, -1473, 3673, -8577
3760, -4946, 6277, 3386, -1913, -6902, -6907
3770, -5302, 3657, 1343, -1595, -10499, -6507
3780, -5960, 2038, -1224, -1583, -11031, -6132
3790, -5633, -2119, -2526, -6551, -8020, -1205
3800, -6214, -3371, -2075, -8889, -8134, 1679
3810, -5980, -4362, -1878, -10439, -10644, 4987
3820, -4672, -5137, -2621, -11388, -14598, 8402
3830, -480, -6193, -2683, -12072, -22965, 12429
3840, 2446, -5969, -1555, -10995, -25217, 12482
3850, 4340, -3251, -1524, -8636, -25045, 10819
3860, 11409, 1887, 224, -6643, -18739, 5392
3870, 24494, 3128, 10526, -5704, -9993, 772
3880, -8369, 7389, -9767, 4132, 11646, -9676
3890, -13531, 10157, -18541, -1231, 24, -6189
3900, -10066, 13042, -23593, -12518, -19883, -1324
3910, 32572, 16013, -18753, -25500, -29879, 7166
3920, 32748, 30263, -24063, -14740, -12447, 10655
3930, 32748, 32748, -27018, -2733, 635, 10506
3940, 32748, 26502, -26571, 2446, 2992, 14963
3950, 30162, 7770, -12576, -5831, 2061, 30394
3960, 30245, 2104, -8326, -7635, 8925, 31854
3970, 32748, -3003, -5534, -6640, 15281, 32268
3980, 32748, -5954, 1837, -2050, 27871, 25186
3990, 32748, -5400, 12873, -3626, 31861, 14365
4000, 30597, -4749, 25657, -4153, 23718, 4709
4010, 19039, -6006, 28046, 1828, 2784, 1925
4020, 11110, -1418, 17695, 14482, -25797, -355
4030, 10732, 1990, 12248, 12846, -25726, -1435
4040, 8459, 3239, 12165, 5794, -17977, -1075
4050, 8135, 4758, 9649, -4411, 866, -180
4060, 6123, 5715, 4345, -4196, 6344, -1613
4070, 2940, 6325, -149, -4883, 8255, -3233
4080, -3060, 3590, -377, -7209, 2500, -4073
4090, -3770, -78, 1373, -6334, -1602, -3366
4100, -3850, -2239, 2380, -3670, -4221, -3057
4110, -2994, -2927, 1983, 1999, -6661, -5290
4120, -2745, -2273, 1248, 4188, -6706, -6486
4130, -1596, -1534, 757, 5787, -6730, -6690
4140, -853, -1400, -336, 8514, -6427, -6233
4150, -1397, -2987, -1302, 10283, -7234, -5723
4160, 99, -5223, -2810, 12924, -9436, -4519
4170, 6850, -7009, -10142, 19905, -15647, -1317
4180, 11146, -6101, -12456, 18444, -13409, 1369
4190, 14095, -1649, -13752, 11973, -6711, 2898
4200, 16771, 3510, -13049, 1802, 705, 1410
4210, 32748, 12022, -17466, -16201, 16452, -8530
4220, 32748, 21354, -23859, -23383, 23444, -21087
4230, 32748, 32748, -21491, -29373, 17840, -31829
4240, 32748, 32748, 12221, -6980, -28940, -25245
4250, 32748, 21319, 6513, 22566, -16865, -22830
4260, 32748, 13782, -6532, 32728, 18609, -24534
4270, 32149, 13537, -9664, 32762, 32414, -27131
4280, 19621, 13843, 1113, 10293, 32766, -17288
4290, 15454, 7995, 10446, -3192, 32766, -9941
4300, 10792, 3626, 13352, -4576, 29426, -5796
4310, 6846, 6915, 4944, 3368, 227, -3201
4320, 5046, 7281, 3420, 3120, -7954, -2160
4330, 3441, 7073, 1559, 3461, -13062, -1732
4340, -5316, 2871, 1628, 2621, -8571, -2858
4350, -7505, 857, 1927, 2192, -2373, -1912
4360, -9183, 218, 1120, 1219, 351, -867
4370, -8945, 651, -2361, -853, -9203, 2907
4380, -7976, -681, -3027, -5321, -17412, 5276
4390, -4472, -1904, -3530, -6245, -23491, 8272
4400, -1539, -3001, -3594, -6941, -25566, 10659
4410, 4004, -3822, -3833, -9297, -20633, 11116
4420, 5758, -1928, 770, -10458, -14939, 9561
4430, 5647, 1189, 2106, -9112, -10316, 6994
4440, 10801, 4941, 8202, -4757, -7499, 2282
4450, 21867, 6417, 14447, -686, -2573, -1232
4460, 18494, 8207, 10848, 5439, 10615, -7466
4470, -3420, 7506, -470, 8012, 22253, -10517
4480, -16405, 526, -15771, -5622, 1463, 385
4490, -12986, 1557, -22782, -13526, -16600, 6538
4500, -363, 243, -21810, -20381, -30347, 12747
4510, 32748, 15232, -24562, -21561, -32575, 16921
4520, 32748, 28838, -32658, -8410, -8398, 11674
4530, 32748, 32748, -32748, -2534, -4273, 4773
4540, 32748, 4899, -10937, -2271, 8044, 30978
4550, 32748, 1768, -2035, -7455, 17863, 31251
4560, 32748, -1792, 19160, -12228, 32766, 11515
4570, 27831, -4398, 30322, -9351, 28854, 3639
4580, 14711, -5263, 31353, -1005, 4788, -496
4590, 13147, -5405, 22429, 8627, -20330, -2543
4600, 9616, -4152, 12539, 11947, -17441, -1196
4610, 8083, -3431, 12170, 5979, -8867, -403
4620, 6610, -1063, 12647, 381, -2603, -524
4630, 4852, 4929, 6238, -1708, 805, -2474
4640, 1537, 6158, 2283, -2979, 186, -4376
4650, -1866, 5337, 649, -5779, -239, -5140
4660, -3646, 1774, 2729, -7846, -785, -4280
4670, -3116, -3840, 2813, -2410, -164, -3165
4680, -3458, -4771, 2164, 206, -108, -4418
4690, -2840, -4367, 1189, 1881, -764, -5309
4700, -1576, -2630, 139, 4401, -2026, -5668
4710, -344, -1843, -186, 5521, -3062, -5765
4720, 50, -1629, -1425, 7023, -3568, -5893
4730, -523, -4602, -3566, 11824, -6218, -3311
4740, 3069, -4301, -7913, 15538, -11586, -956
4750, 7164, -2158, -12113, 16459, -15313, 1626
4760, 13841, 3228, -12382, 11598, -14890, 2806
4770, 17529, 5959, -11863, -3117, -5738, -569
4780, 25848, 8853, -12968, -9250, 744, -3538
4790, 32748, 21935, -20627, -16709, 19883, -16670
4800, 32748, 31768, -18779, -19139, 21133, -23589
4810, 32748, 32738, -8982, -18251, 2899, -20463
4820, 32748, 16901, 14994, 16144, -5949, -18980
4830, 32748, 7108, 7934, 31955, 22937, -26139
4840, 32748, 6163, 1109, 32765, 32730, -25842
4850, 20282, 14597, -1280, 26332, 32766, -22226
4860, 13577, 8139, 10564, 2858, 32728, -13388
4870, 11670, 5068, 12216, -6864, 27122, -7418
4880, 10291, 5895, 9390, -4005, 12224, -5238
4890, 6710, 9261, 1036, 4564, -11243, -7163
4900, 3499, 10273, -1605, 6793, -18254, -9564
4910, -202, 11176, -3784, 7009, -18822, -10690
4920, -6430, 4285, 3218, 1569, -3335, -2527
4930, -5692, 1640, 4240, -1126, 458, 1626
4940, -6125, 592, 2822, -2928, -1271, 3433
4950, -6755, -47, -1566, -4815, -5809, 4603
4960, -4889, -1228, -1921, -7775, -19463, 9146
4970, -1855, -1839, -2372, -7720, -23817, 12394
4980, 1409, -2492, -2381, -7263, -24579, 14767
4990, 5751, -2606, -1040, -6691, -17214, 14760
5000, 8150, -1363, 1395, -6471, -10911, 12387
5010, 6657, 2552, 3646, -3430, -3181, 2926
5020, 6787, 3467, 7264, -1392, -2342, -1404
5030, 4851, 4739, 6106, 2357, -1622, -4772
5040, -6997, 7387, -13402, 1778, -2372, -4860
5050, -8126, 10220, -19730, -6996, -8936, -2103
5060, 1362, 13296, -19591, -18198, -19087, 768
5070, 23580, 17313, -14437, -25883, -23025, 3093
5080, 32748, 32378, -15695, -7693, 4654, 8710
5090, 32748, 26770, -25332, 4512, 917, 9591
5100, 30003, 10629, -24011, 3017, -4960, 11259
5110, 32748, 6854, -16222, -4656, 8045, 32419
5120, 32748, 2022, -10532, -9458, 22713, 32766
5130, 32748, -3180, -4659, -11452, 31699, 32564
5140, 32748, -6101, 2013, -10261, 32458, 28792
5150, 32748, -5999, 23548, -1356, 13083, 10555
5160, 30005, -4926, 24165, 8502, -5911, 3907
5170, 19681, -1599, 16608, 20688, -19569, -54
5180, 10265, 4551, 10998, 27100, -26788, 2551
5190, 9110, 8028, 13925, 21455, -26950, 2349
5200, 12957, 11547, 15823, 9734, -22661, 574
5210, 7872, 1101, 25827, -11146, 3190, -1157
5220, 8556, 4132, 12517, -4368, 9020, -1051
5230, 6568, 5373, 2543, -2190, 12165, -1808
5240, -1016, 981, -2703, -9494, 7401, -3166
5250, -2939, -2197, -206, -11092, 2611, -2106
5260, -5057, -3030, 591, -8639, -1667, -1152
5270, -6747, -2463, -505, -4624, -5636, -423
5280, -6996, -2053, -697, 1095, -12428, -306
5290, -5708, -1916, -943, 2771, -14856, -338
5300, -3930, -1997, -1131, 4191, -16312, -580
5310, -1479, -1863, -1484, 6883, -13398, -996
5320, 531, -2535, -2248, 8614, -10151, -1397
5330, 1668, -2787, -3842, 10962, -6214, -2470
5340, 7938, -177, -13258, 14021, -37, -5288
5350, 17257, 1677, -19198, 11096, 5183, -7194
5360, 30054, 5113, -24680, 6147, 18465, -6792
5370, 32748, 14494, -23784, -7873, 32501, -7059
5380, 32748, 19090, -16172, -14808, 18576, -10339
5390, 32748, 21680, -12148, -16882, -13560, -11335
5400, 32748, 25194, -6363, -13534, -28864, -12443
5410, 32748, 22462, 27525, 9729, -9673, -16748
5420, 32748, 9655, 27504, 29024, 14630, -21774
5430, 30294, 9284, 9031, 32766, 31723, -20404
5440, 13833, 4011, 10966, -3548, 19919, -13632
5450, 7988, 6565, 8837, -4619, 9594, -15633
5460, 791, 9542, 2128, 1032, -8049, -16896
5470, -1747, 9364, 298, 1710, -12401, -12985
5480, -2162, 5542, -239, 758, -14351, -7503
5490, -3105, 194, 1091, 228, -11626, -159
5500, -3454, 274, 220, 323, -8534, 2028
5510, -4763, 440, -269, -1799, -6017, 5186
5520, -4979, -804, -297, -5565, -6161, 8817
5530, -888, -3668, 258, -12374, -10780, 15142
5540, 1888, -4037, 61, -14471, -12928, 16008
5550, 7222, 290, 1297, -13999, -14108, 11903
5560, 9977, 1878, 2892, -11157, -13220, 7957
5570, 21370, 6071, 11584, -542, -4516, -5956
5580, 7940, 6706, 5769, 8011, 5949, -15505
5590, -8418, 7172, -6363, 11757, 10551, -17515
5600, -14355, 7449, -17111, 4950, 1343, -12898
5610, -3054, 15021, -23416, -24745, -28881, 218
5620, 25182, 24507, -15379, -32345, -32505, 4747
5630, 32748, 30093, -6094, -30385, -19529, 8404
5640, 32748, 18506, -18758, 5495, 1768, 12499
5650, 31458, 6693, -22570, 8093, -2509, 17488
5660, 32746, 3522, -21875, 2820, -293, 27426
5670, 32002, -2199, -12326, -10904, 21414, 32534
5680, 32748, -3774, -8376, -13227, 24697, 32220
5690, 32748, -4571, -4732, -13514, 22162, 30031
5700, 32748, -1360, 9055, -8375, 12380, 14841
5710, 32748, 1774, 15667, -3568, 5827, 5942
5720, 27666, 4935, 15035, 3753, -2915, 431
5730, 18120, 8651, 12084, 10474, -8345, -949
5740, 9106, 12572, 16019, 8259, -15118, 3781
5750, 7840, 16392, 17986, -1590, -14609, 2099
5760, 4962, 4902, 27153, -16709, -6933, -11
5770, 10415, -8702, 19442, -19559, 526, 804
5780, 7217, -3081, 7517, 508, 3206, -1534
5790, 3423, 743, 653, 4290, 3550, -2885
5800, -846, 1463, -1954, 3254, 1532, -4014
5810, -4823, -2642, 2402, -19, -5350, -2760
5820, -5987, -3160, 2716, 1080, -7340, -2391
5830, -5683, -3026, 2078, 2342, -9121, -2711
5840, -4573, -1979, 345, 4044, -9946, -4285
5850, -4273, -1751, -62, 4703, -9060, -4727
5860, -3701, -1429, -37, 5641, -8300, -4541
5870, 120, -1279, -2747, 9195, -7597, -3917
5880, 1853, -2191, -4175, 11058, -6580, -3799
5890, 4937, -2057, -6754, 13699, -5333, -2545
5900, 13854, 2948, -14322, 11674, 3306, 1544
5910, 18973, 6959, -16210, 3919, 9200, 1766
5920, 30425, 10113, -17246, -5718, 12886, -1397
5930, 32748, 19560, -13960, -22519, 22576, -12377
5940, 32748, 17554, -2831, -26315, 6640, -17669
5950, 32748, 20666, -14, -17860, -17156, -20307
5960, 32748, 25171, -18, -2219, -27112, -18960
5970, 32748, 21898, 3469, 25595, -8422, -12468
5980, 32748, 12088, 9235, 31903, 11167, -13063
5990, 32748, 6818, 7447, 32766, 29881, -14475
6000, 32736, 6306, 10515, 32699, 32766, -15710
6010, 29337, 7890, 8329, 24837, 32766, -12762
6020, 20076, 5987, 12361, 6011, 31416, -9566
6030, 5973, 11840, 10012, -1282, 9660, -10959
6040, 2543, 13717, 5957, 1333, -1623, -10502
6050, 552, 13615, 1542, 2773, -11169, -9468
6060, 51, 12014, -533, 1179, -15955, -6867
6070, 480, 4978, -607, -5775, -9997, 1290
6080, 345, 2612, -9, -7058, -6518, 2708
6090, -2913, 2601, -1567, -6679, -5853, 2001
6100, -3664, 225, -2388, -9279, -13369, 5378
6110, -2300, -2446, -1798, -11680, -16858, 8528
6120, 916, -5470, -1569, -12881, -19537, 12880
6130, 2823, -5085, -2150, -12132, -18876, 13035
6140, 4256, -3035, -1838, -11553, -16349, 11756
6150, 4547, -599, -1412, -10471, -13363, 8972
6160, 4063, 2303, 2315, -7287, -8627, 2794
6170, 8140, 2515, 7895, -4304, -5845, 182
6180, 11661, 2502, 11469, 2143, 154, -3853
6190, -10629, 6541, -11323, 7738, 8207, -7567
6200, -11898, 7182, -18216, -2888, -2677, -3767
6210, -6966, 7666, -20502, -15781, -17713, 736
6220, 32744, 12909, -16742, -25631, -29927, 5566
6230, 32748, 24777, -22052, -17481, -80, 18701
6240, 32748, 31309, -24263, -8584, 8136, 13243
6250, 32748, 20497, -18722, -4614, 5536, 5392
6260, 32414, 9833, -14165, -2237, 324, 21510
6270, 25027, 5453, -9317, -6003, 5660, 22767
6280, 31313, 721, -5227, -8938, 6739, 24713
6290, 32748, -7023, 6230, -5155, 13675, 18210
6300, 32748, -5869, 14453, -1557, 18430, 10908
6310, 32748, -5369, 21961, 2244, 12790, 4287
6320, 18845, -3548, 20969, 7759, -3592, 1875
6330, 15850, -475, 17227, 14826, -19620, 1008
6340, 9716, 3918, 7866, 891, 4964, 721
6350, 9076, 5901, -1621, 1292, 11279, -809
6360, 5065, 6373, -6400, -2417, 13365, -3206
6370, -3510, 2323, -3085, -9350, 3270, -3857
6380, -4555, -243, -71, -7776, -4532, -2347
6390, -4983, -1544, 521, -3451, -10252, -1639
6400, -7065, -2120, 2413, 734, -13999, -1989
6410, -5561, -1499, 636, 5885, -17402, -3215
6420, -3640, -1317, 46, 5720, -18089, -3992
6430, -2605, -1032, -342, 5009, -17638, -4569
6440, -1837, -1049, -383, 4479, -16021, -4877
6450, -904, -2137, -577, 6196, -12196, -4916
6460, -488, -3358, -1121, 8751, -9915, -4917
6470, 2476, -2642, -4544, 12380, -7794, -4952
6480, 9329, 1145, -15826, 13185, 1546, -5946
6490, 19738, 5296, -21381, 8376, 13654, -2623
6500, 32748, 10532, -22006, 398, 28235, -197
6510, 32748, 22406, -19690, -14866, 32763, -12249
6520, 32748, 32748, -12197, -21097, 23811, -18418
6530, 32748, 30880, 2228, -23210, -13931, -21242
6540, 32748, 23727, 23782, -8441, -31736, -21267
6550, 32748, 12930, 3288, 32749, 21605, -22571
6560, 26704, 15747, -5669, 32766, 32612, -21413
6570, 29151, 14628, 1850, 28449, 32765, -19830
6580, 27380, 13779, 6166, 11856, 32766, -15459
6590, 18686, 11606, 11859, -3022, 31502, -10773
6600, 10210, 11620, 8084, -6188, 22038, -10029
6610, 992, 10843, 4144, -523, -2812, -9808
6620, 803, 10049, 747, -362, -9638, -7494
6630, -485, 7104, -1390, -2897, -10569, -4745
6640, -5458, 1125, -317, -8464, -3979, -2299
6650, -7690, -907, 164, -9919, -3595, -1891
6660, -8727, -1403, -1235, -10742, -6202, -112
6670, -5208, -2802, -1613, -12394, -17706, 6246
6680, -1074, -3857, -1261, -12548, -22421, 9106
6690, 1910, -4485, -1555, -11837, -23498, 10812
6700, 2662, -4451, -2926, -10749, -22859, 11243
6710, 3852, -5445, -2057, -9708, -19701, 10880
6720, 3868, -4274, -51, -8909, -15924, 9467
6730, 3445, -280, -275, -7478, -11894, 6780
6740, 2215, 4207, 2645, -6639, -6848, 2009
6750, 4098, 5369, 5938, -5543, -5193, 666
6760, 11037, 5451, 9995, -2518, -2613, -1146
6770, -8366, 7101, -13834, 2734, 4543, -4171
6780, -12153, 8324, -21707, -5341, -5278, -1609
6790, -841, 6668, -21152, -16916, -23290, 3485
6800, 32748, 12901, -16541, -13736, -14370, 14637
6810, 32748, 23744, -27009, -474, 8310, 12923
6820, 32748, 24925, -31228, 4540, 12974, 8290
6830, 32748, 11900, -16555, -8703, 5086, 27127
6840, 32748, 5089, -8364, -14288, 5739, 24226
6850, 31118, 845, -2226, -14376, 5417, 19299
6860, 32748, -1697, 2474, -10684, 3292, 18135
6870, 32748, -288, 13269, -1531, 7661, 12317
6880, 32748, 681, 15383, 2279, 10512, 7627
6890, 31079, 152, 17815, 2655, 8741, 5144
6900, 16480, -2019, 22811, -1059, -9431, 1937
6910, 12394, -4355, 22915, -1795, -14955, -439
6920, 9559, -5058, 21706, -1727, -14098, -1261
6930, 7296, 399, 17334, -1373, -8761, 236
6940, 7247, 3795, 10338, 3453, 6867, 629
6950, 7482, 6267, 1018, 5374, 8943, -560
6960, 6018, 8786, -6325, 3911, 5453, -3623
6970, -2611, 6781, -6803, -6907, -8392, -6986
6980, -4195, 2137, -754, -8882, -13458, -5135
6990, -4263, -1056, 1844, -5385, -14769, -3524
7000, -4326, -3038, 2236, 1519, -13622, -5303
7010, -4347, -3089, 1978, 3222, -13526, -6688
7020, -3882, -2764, 1370, 4744, -12854, -7180
7030, -2411, -2324, 514, 6973, -9564, -6139
7040, -1270, -3036, -242, 8756, -7215, -5117
7050, 556, -4517, -1382, 11961, -5602, -4389
7060, 10659, -456, -13701, 19680, -6174, -3007
7070, 14219, 2606, -16883, 15752, -1964, -504
7080, 20271, 5930, -18805, 6288, 3342, 1756
7090, 32748, 10196, -17916, -15918, 13763, -6969
7100, 32748, 13184, -17334, -21685, 14261, -18318
7110, 32748, 20760, -13700, -21495, 6850, -28661
7120, 32748, 32748, -3662, -12729, -3628, -28754
7130, 32748, 23947, 7132, 16731, -5875, -17148
7140, 32748, 9953, 4501, 30766, 17871, -19661
7150, 32748, 7409, -2118, 32766, 32459, -23134
7160, 30404, 14172, -1716, 31420, 32766, -23137
7170, 23539, 17858, 2384, 20931, 32766, -19807
7180, 14460, 16556, 9376, 8094, 32758, -13904
7190, 4523, 12990, 5657, 1175, 13673, -6000
7200, 2366, 13980, -85, 148, 515, -4771
7210, 2344, 13367, -1538, -3457, -6552, -4022
7220, -195, 11245, -969, -6881, -8383, -4985
7230, -8640, -2702, 1598, -6761, -2834, -1007
7240, -8848, -2532, -955, -7063, -7842, 510
7250, -8383, -2752, -1620, -8332, -14235, 2941
7260, -4085, -4362, -1511, -8826, -26779, 9777
7270, 357, -4496, -2250, -8226, -29527, 12547
7280, 4567, -4062, -2472, -7863, -28874, 12857
7290, 12712, 1693, 1085, -6445, -19111, 7161
7300, 15972, 4701, 6166, -4875, -11635, 2785
7310, 20177, 6803, 9688, -1857, -3738, -2264
7320, 13564, 7690, 7156, 2500, 5509, -8424
7330, -14060, 5801, -9619, 3958, 7631, -8648
7340, -15595, 4396, -16488, -2572, -4702, -2266
7350, -14270, 5743, -22035, -11454, -21446, 3361
7360, 22114, 11093, -17283, -26315, -32766, 9485
7370, 32748, 13926, -12804, -21695, -31919, 9241
7380, 32748, 24651, -19304, -6022, -19859, 6723
7390, 32748, 32743, -28056, 6909, -6232, 4543
7400, 24586, 17091, -21016, -3289, 3604, 24854
7410, 26304, 11080, -17197, -10478, 3128, 32253
7420, 32699, 5812, -14719, -14064, 7328, 32766
7430, 32748, -2877, -5588, -17222, 21707, 32457
7440, 32748, -4643, 5720, -16778, 31174, 27065
7450, 32748, -5260, 16339, -13427, 32471, 14596
7460, 24932, -6377, 26685, 5414, 11811, 3085
7470, 14443, -3382, 20995, 16435, -6093, 912
7480, 9276, -679, 17604, 21734, -19761, 177
7490, 6355, 2437, 12032, 7541, -19444, -1495
7500, 4116, -2633, 16972, -5755, -10149, -1034
7510, 4831, -3850, 16324, -8437, -1719, 366
7520, 6670, 660, 8115, -2163, 3515, 904
7530, 2390, 7124, -7185, 1263, 3565, -4126
7540, -2167, 7009, -7475, -3571, -1604, -5767
7550, -4650, 3275, -1657, -7850, -7449, -5062
7560, -5235, -1490, 3671, -957, -9271, -1983
7570, -4672, -2628, 2866, 3554, -7068, -2629
7580, -4461, -3073, 2520, 5357, -5957, -4423
7590, -2089, -2650, 2084, 7072, -6440, -5940
7600, -1545, -2346, 1327, 7742, -6505, -5674
7610, -1411, -2523, 1374, 8560, -5885, -4716
7620, -148, -3459, 1194, 10478, -4547, -2835
7630, 8616, -4427, -4742, 19086, -3910, -1594
7640, 12212, -1771, -11682, 22323, -2437, -2291
7650, 21108, 2991, -18005, 19409, 597, -1706
7660, 29999, 11053, -22255, 9125, 3820, -3804
7670, 32748, 12140, -19893, -19796, 10307, -12239
7680, 32748, 14666, -17895, -28548, 5676, -20873
7690, 32748, 30823, -1582, -16585, -22010, -26353
7700, 32748, 32729, 4917, 3826, -22592, -20065
7710, 32748, 23361, 5977, 24434, -4095, -22375
7720, 27471, 12391, -8198, 32766, 32747, -26355
7730, 27964, 10906, -6430, 32222, 32766, -24973
7740, 31695, 10225, -1767, 25970, 32766, -22493
7750, 29102, 11428, 3125, 17186, 32766, -18992
7760, 10794, 16702, 6263, 6453, 30604, -11288
7770, 4175, 16364, 5213, 2989, 19280, -6201
7780, 2246, 14932, 3656, 439, 7018, -2854
7790, -6335, 11995, 5227, -4144, -1674, -6118
7800, -6231, 6367, 6181, -4075, -2466, -5870
7810, -4684, 2263, 5581, -3179, -1529, -4250
7820, -4004, -181, 4798, -3466, -649, -3424
7830, -6164, -261, 179, -6299, -4082, -1932
7840, -6843, -362, -2539, -7825, -8920, 236
7850, -6720, -1626, -3873, -9690, -15016, 3405
7860, -3426, -4446, -4757, -11776, -28806, 10285
7870, 247, -4933, -4910, -12011, -32264, 12778
7880, 4367, -4499, -3909, -11864, -31257, 13382
7890, 10126, 641, 1445, -10393, -18918, 8041
7900, 15045, 3184, 7775, -8616, -10995, 4324
7910, 23389, 5132, 15606, -4934, -1123, -212
7920, -2581, 4965, -1932, 5502, 18854, -10760
7930, -12243, 3352, -11860, 2398, 12943, -7499
7940, -16409, 3878, -20904, -5911, -1831, -1256
7950, 5928, 4907, -17707, -26241, -32485, 9600
7960, 29538, 11034, -13515, -26534, -32766, 10968
7970, 32748, 16206, -10419, -17151, -29922, 9361
7980, 32748, 24459, -20790, 1026, -15923, 3706
7990, 32740, 23300, -29723, 5014, 3548, 20345
8000, 32748, 14407, -20039, -7421, 3522, 31156
8010, 32748, 7320, -12029, -13499, 6998, 32759
8020, 32748, 2758, -7169, -10663, 17211, 29053
8030, 32748, 1327, -3533, -10902, 20410, 27337
8040, 32748, -24, 8419, -12313, 24832, 23598
8050, 32748, -2989, 19468, -11107, 22330, 15571
8060, 26116, -5791, 30451, 4998, 2905, 3315
8070, 14080, -1889, 27851, 13937, -10799, 361
8080, 11148, 2101, 21482, 17817, -20939, -1140
8090, 7154, 337, 17020, 3831, -12359, -2882
8100, 6824, -3844, 16852, -1912, -5006, -2366
8110, 1308, 4750, -5933, 642, 1949, -3362
8120, -3416, 1433, -1501, -6589, -5709, -3510
8130, -3874, -467, 1239, -5387, -8001, -2539
8140, -4151, -1444, 1448, -1897, -8151, -2348
8150, -4505, -1455, 1507, 3122, -8426, -4015
8160, -4150, -949, 1020, 4866, -8192, -4052
8170, -3965, -356, 1162, 5944, -7650, -3667
8180, -2870, 19, 1089, 6916, -7513, -3351
8190, -333, -2250, -889, 10621, -6808, -3531
8200, 1962, -3593, -3056, 13669, -6499, -3830
8210, 5522, -3952, -7546, 17379, -7478, -4648
8220, 18153, 2722, -18811, 16620, 1030, -2236
8230, 27470, 6613, -19759, 8084, 12441, 284
8240, 32748, 8590, -18787, -2489, 22748, -1595
8250, 32748, 10921, -16624, -10393, 29472, -7713
8260, 32748, 23480, -7534, -17699, 10497, -15455
8270, 32748, 22285, 1796, -15188, -11773, -14216
8280, 32748, 21341, 11339, -1785, -18324, -14962
8290, 32709, 10858, 9577, 32283, 21243, -19521
8300, 25723, 13842, -1045, 32766, 31096, -18926
8310, 23441, 17219, -3689, 32745, 29332, -18779
8320, 23440, 18136, -549, 28604, 26299, -17644
8330, 23045, 14794, 5884, 7580, 24872, -10492
8340, 16186, 12919, 6824, 1800, 22145, -7348
8350, 6494, 10862, 4740, -4347, 6227, -5342
8360, -1111, 7291, 4066, -6896, -7179, -6805
8370, -2033, 4966, 2428, -6707, -9740, -6377
8380, -2832, 2021, 2126, -7121, -8048, -5957
8390, -4721, -19, 1843, -7822, -4376, -5670
8400, -8334, -1452, -1169, -9651, -4690, -1836
8410, -9268, -2245, -2520, -10152, -10917, 1233
8420, -7646, -3331, -2594, -10461, -18881, 5242
8430, -2258, -3840, -4161, -9734, -30473, 11716
8440, 33, -3974, -4349, -9600, -32595, 12936
8450, 1808, -4365, -3588, -9300, -32271, 13204
8460, 3586, -4393, -1461, -8726, -29278, 12570
8470, 6100, -1979, -904, -5503, -18499, 8066
8480, 7384, -53, 212, -3969, -12616, 4883
8490, 16468, 249, 8350, -3033, -5395, 1383
8500, 1567, 3841, 1162, 8169, 23335, -10406
8510, -9144, 6435, -11246, 7206, 23990, -10208
8520, -13551, 8003, -20059, -2755, 11399, -6783
8530, -4787, 6299, -19623, -16354, -7796, -337
8540, 30610, 13180, -14651, -22450, -7890, 18864
8550, 32748, 23123, -15396, -15084, 10240, 29036
8560, 32748, 22709, -17167, -5370, 7142, 15748
8570, 32748, 15177, -15270, -4818, 2140, 16593
8580, 32748, 11335, -10435, -6684, -1529, 17353
8590, 32743, 8112, -8720, -7837, -1164, 16527
8600, 32748, -951, 421, -5864, 3812, 14907
8610, 32748, -2143, 9989, -2025, 12316, 9561
8620, 32748, -2137, 14030, 4081, 16318, 5249
8630, 21972, -3805, 20978, 13402, -4246, 43
8640, 12983, -3629, 24476, 14307, -18649, -1653
8650, 9911, -3835, 22859, 11582, -28865, -2666
8660, 9930, -6700, 27561, 4524, -26915, -2358
8670, 9532, -3990, 27711, -414, -1152, 9
8680, 10048, -266, 16947, 4050, 11596, 799
8690, 11344, 3707, 4508, 6938, 17229, 570
8700, 6281, 6615, -10867, -1440, 13854, -4183
8710, 889, 5722, -12668, -9449, 4530, -6322
8720, -3153, 2435, -9407, -15884, -8559, -6352
8730, -4905, -549, -4359, -16776, -22821, -4511
8740, -3388, -2605, -535, -4123, -32767, -3671
8750, -2866, -2157, -71, 3334, -32766, -5948
8760, -2766, -1017, 106, 9196, -32767, -8880
8770, -353, 1505, -2782, 11058, -32683, -14562
8780, -442, 1788, -2122, 7589, -29284, -17353
8790, -907, 1048, -1262, 21, -14923, -21198
8800, -1634, -371, -438, -1492, -7784, -21892
8810, -3912, -1142, -1295, -987, 227, -21093
8820, -5173, -1347, -2417, 433, 6463, -18865
8830, -764, 2477, -11606, 4400, 22939, -8584
8840, 2488, 5022, -16162, 3384, 32002, -1550
8850, 6041, 6140, -18661, 114, 32766, 4568
8860, 32165, 31790, -23406, -6122, 32766, 13502
8870, 32748, 32748, -20297, -15839, 32766, 21186
8880, 32748, 32748, 7121, -25313, 24814, 7563
8890, 32748, 25446, 21979, -12929, -7614, -2323
8900, 32748, -2571, 32144, 31391, 15208, -7843
8910, 32748, 191, 18021, 32766, 31689, -6495
8920, 27632, 6262, 9020, 32766, 32737, -8692
8930, 26358, 10830, 12684, 26122, 17022, -14123
8940, 19396, 11694, 13190, 9257, 10747, -14602
8950, 14011, 14686, 11145, 976, 1961, -15412
8960, 12144, 18836, 4242, -178, -6021, -15810
8970, 4441, 17137, 309, -3645, -6681, -14154
8980, 137, 13450, -192, -4542, -6275, -13191
8990, -2138, 9374, -406, -4287, -5668, -10418
9000, -4283, 4930, -2679, -3836, -4723, -6644
9010, -3520, -2501, 264, -15453, -12288, 3523
9020, -1013, -4585, 466, -15289, -15653, 6388
9030, 674, -5325, -1066, -12343, -18714, 10106
9040, 907, -5197, -1224, -11536, -19523, 11153
9050, 1465, -4791, -425, -11068, -19636, 11495
9060, 4023, -3447, 993, -8154, -15733, 9722
9070, 3597, -2108, 401, -5733, -11005, 7575
9080, 1887, -953, -280, -4079, -5886, 5523
9090, -1345, -277, -2615, -3805, -1448, 2883
9100, -2549, 305, -6551, -4961, -3008, 2219
9110, -3200, 958, -9471, -7679, -6606, 2226
9120, 6481, 5116, -14668, -13800, -17681, 4527
9130, 20670, 9030, -13941, -14488, -15054, 8193
9140, 32394, 19867, -15837, -10380, 1080, 15294
9150, 32748, 32748, -21366, -4629, 17558, 26919
9160, 32748, 9724, -6924, -6464, 17081, 22915
9170, 32748, 5662, -6954, 1145, 13151, 22013
9180, 32748, 3654, -6911, 5286, 6786, 18158
9190, 32748, -651, 1589, 5371, -1718, 14354
9200, 32748, -1824, 12562, 5109, 929, 12238
9210, 32748, -1684, 21047, 8354, 2381, 10034
9220, 32748, -1010, 23189, 13856, 288, 7181
9230, 20974, 1805, 23240, 9383, -19029, 2023
9240, 20571, 1621, 25434, -2520, -21112, -1522
9250, 7181, -7063, 29800, -16286, -57, -4105
9260, 5669, -9203, 28054, -11356, 8396, -348
9270, 7471, -7027, 20115, -1455, 14223, 1576
9280, 10532, 4858, -6914, 9023, 16405, -1587
9290, 7549, 8011, -15670, 3032, 9050, -5395
9300, 3029, 7904, -17488, -7692, -4414, -8245
9310, 154, 4228, -11495, -16533, -20434, -8361
9320, -1198, 441, -3047, -11090, -32766, -6454
9330, -1329, -14, -905, -4012, -32766, -7525
9340, -1537, -753, 1435, 2146, -32766, -9080
9350, -484, -49, 1549, 11442, -32758, -12348
9360, -129, 587, -33, 12461, -30700, -14437
9370, 424, 1291, -1255, 10568, -23244, -16287
9380, 266, 572, -420, 2015, -7584, -19288
9390, -466, -263, 565, -757, -2180, -21122
9400, -865, -1048, 1016, -1023, 1195, -23345
9410, -586, 810, -2716, 6023, 10099, -22712
9420, 1701, 3105, -7738, 9885, 18698, -18983
9430, 6941, 6619, -15692, 11327, 29594, -14371
9440, 13449, 16276, -28789, 9317, 32763, -10641
9450, 32748, 32748, -32748, -15247, 32766, 11926
9460, 32748, 32748, -651, -29014, 26390, 18241
9470, 32748, -6478, 32764, -12656, 2695, 12357
9480, 32748, -5441, 22523, 32521, 32076, -12663
9490, 32248, 408, 9979, 32766, 32766, -12225
9500, 31152, 7955, 2930, 32749, 32753, -13586
9510, 18465, 9027, 14239, 3687, 21486, -13294
9520, 13872, 13226, 14320, -3811, 8774, -12788
9530, 9785, 18014, 8388, -1833, -3725, -12423
9540, 7479, 17588, -477, 1396, -12108, -10660
9550, 1969, 14069, -1703, 414, -15816, -7246
9560, 11, 12124, -2238, -358, -13799, -5181
9570, -1727, 9514, -740, -2000, -9294, -3135
9580, -2749, 3796, 1102, -6133, 688, 739
9590, -3561, 1878, 291, -8245, 2175, 1871
9600, -5468, -56, -21, -10358, 762, 2022
9610, -6985, -2007, -420, -12054, -4612, 2089
9620, -4971, -5467, -1337, -12340, -19839, 5670
9630, -4032, -5461, -2965, -10860, -25299, 7818
9640, -3103, -5356, -3566, -9598, -29745, 9166
9650, -60, -4291, -2622, -8413, -31172, 10727
9660, 1183, -3556, -481, -8014, -27704, 10609
9670, 3177, -2012, 1345, -6567, -22622, 9820
9680, 12098, 903, 6180, -2514, -9574, 4717
9690, 16093, 1786, 7246, 985, 932, -1102
9700, 1996, 3566, -3203, 4634, 13760, -7406
9710, -11056, 5554, -17353, -5153, 3806, -5433
9720, 10300, 5104, -14982, -12636, -14802, 229
9730, 28474, 9617, -12454, -13278, -14807, 8190
9740, 32748, 30392, -28112, -672, 23835, 19513
9750, 32748, 29540, -24441, -5314, 27790, 17771
9760, 32748, 15953, -11791, -13971, 15765, 24626
9770, 32748, 3473, -4686, -12983, 216, 28779
9780, 32748, 3729, -6046, 2443, 136, 21779
9790, 32748, 3744, -3935, 3354, 2543, 19112
9800, 32748, 5579, 2269, -2, 5167, 16233
9810, 32748, 11091, 23704, -6757, 10749, 6456
9820, 26056, 13564, 29676, -10431, 8361, 1722
9830, 17429, 8520, 32398, -18466, 3200, -1318
9840, 12999, -8643, 27975, -23299, -1145, -570
9850, 8291, -9441, 21762, -9881, 2673, 283
9860, 6078, -8271, 14989, -3179, 4360, 1654
9870, 5956, -5910, 8870, 2186, 4484, 2664
9880, 5308, 920, -4464, 7605, -1177, -602
9890, 3694, 3295, -9975, 5915, -7897, -3567
9900, 1635, 4231, -11999, 1635, -17014, -6080
9910, -4317, -1174, 4046, 5088, -32182, -4801
9920, -2203, -925, 2434, 7084, -30665, -6050
9930, -576, -1091, 1476, 6599, -28297, -8021
9940, -460, -1663, 1953, 3346, -20024, -11605
9950, -1099, -1731, 2225, 2951, -14964, -11851
9960, -1508, -2612, 2898, 4083, -10571, -11779
9970, -3489, -3099, 163, 7539, -4765, -11078
9980, -19, -204, -5719, 17860, -3773, -9268
9990, 4165, 2776, -12300, 19143, -193, -7265
10000, 7919, 4419, -15554, 15402, 7648, -5698
10010, 32748, 20503, -32539, -1500, 30591, 405
10020, 32748, 25186, -32748, -16752, 32766, -8763
10030, 32748, 32748, -29020, -28083, 31370, -15221
10040, 32748, 23556, 23011, -10903, -13044, -7433
10050, 32748, 9495, 21735, 22104, 5276, -16852
10060, 32748, 4557, 7379, 32722, 30107, -22629
10070, 29273, 5926, -3112, 32766, 32766, -24619
10080, 30522, 11294, -1592, 29669, 32765, -25193
10090, 26917, 13306, 3355, 14328, 32766, -19975
10100, 20799, 13807, 8575, 1650, 31329, -14359
10110, 7732, 18465, 3745, -883, 10257, -7542
10120, 3181, 17502, 9, -1200, 869, -5105
10130, 1173, 12530, -355, -2841, -7606, -3432
10140, -1869, 9643, 1830, -4364, -5048, -3857
10150, -2864, 5250, 4238, -3712, -2763, -2719
10160, -1460, 1496, 6053, -4044, -1858, -636
10170, -3552, -715, 2924, -5819, -599, -232
10180, -4850, -1540, 1241, -7821, -2602, -309
10190, -6180, -3009, 56, -9526, -6309, 621
10200, -5629, -5333, -2598, -9831, -16410, 5737
10210, -4276, -5524, -3839, -9100, -21704, 8695
10220, -2331, -4996, -4684, -8526, -25708, 10929
10230, 3201, -1767, -2159, -8553, -26787, 11294
10240, 4974, 267, -115, -8061, -23702, 9585
10250, 15152, 1055, 9028, -7115, -18701, 7536
10260, 15482, 5753, 5605, 12415, 12615, -14160
10270, -10072, 7500, -9771, 15437, 23216, -18657
10280, -19526, 8052, -19014, 6783, 12622, -11682
10290, -17581, 8009, -23205, -7650, -9336, -2259
10300, 22152, 9833, -13062, -28444, -32766, 7947
10310, 32748, 15985, -16414, -21878, -31738, 9069
10320, 32748, 27226, -24496, -6868, -19394, 11154
10330, 32748, 21019, -31516, 5418, 2968, 17832
10340, 32748, 11115, -21927, -1354, 1012, 29819
10350, 32748, 2854, -12648, -6004, 6562, 32401
10360, 32748, 2520, -9962, -6607, 11493, 29601
10370, 32748, 3018, -6108, -8326, 16208, 26225
10380, 32748, 3772, 120, -10906, 22992, 20674
10390, 31805, 573, 25317, -9022, 22309, 3950
10400, 24174, 59, 27270, 741, 8015, 2077
10410, 16007, 2414, 22668, 9368, -4833, 1033
10420, 8952, 3197, 21230, 2691, -13247, -887
10430, 7806, -1962, 22774, -6833, -9502, -2649
10440, 7468, -7885, 23405, -11460, -2075, -2305
10450, 6531, -3522, 10340, 1931, 6973, -516
10460, 5658, 1431, 2050, 7673, 6660, -1895
10470, 1436, 4274, -4307, 8586, 4021, -4180
10480, -2244, 4114, -7012, 4946, -839, -5152
10490, -4087, -2417, -730, -2322, -10629, -2348
10500, -4978, -3483, 842, -1166, -12045, -1364
10510, -5417, -3446, 1228, 1338, -13313, -1421
10520, -4520, -2561, 716, 5615, -15769, -3244
10530, -3813, -1987, 655, 6890, -16015, -4109
10540, -2708, -1447, 306, 8169, -15952, -4834
10550, -1876, -1317, -535, 9478, -15207, -5537
10560, 570, -1898, -3222, 13175, -12410, -6734
10570, 1826, -1439, -6932, 15584, -12730, -7554
10580, 13766, 3956, -16340, 13974, -8835, -5250
10590, 21337, 6431, -18157, 7799, -681, -3271
10600, 30536, 10200, -20566, 530, 8929, -2998
10610, 32748, 21566, -26649, -16832, 12813, -18133
10620, 32748, 28952, -22357, -25028, 1361, -23180
10630, 32748, 32204, -12571, -25519, -15344, -17781
10640, 32748, 23798, 9620, 2492, -16191, -12286
10650, 32748, 8458, 9103, 23257, 14254, -19147
10660, 32748, 6083, 822, 32611, 32318, -25623
10670, 26353, 10445, -5028, 32766, 32766, -30211
10680, 29899, 15315, 213, 22809, 32766, -18231
10690, 17602, 11325, 8594, 3982, 32766, -11326
10700, 5774, 7062, 12831, -3661, 31207, -9696
10710, 2246, 11510, 1280, 868, -684, -6077
10720, 643, 10231, -1699, -540, -7997, -4089
10730, 338, 7676, -1399, -1837, -10660, -1897
10740, 323, 6290, -758, -1923, -11195, -182
10750, 1301, 1303, 4906, -2600, -5679, 753
10760, -167, 119, 6360, -4369, -2523, 260
10770, -3356, -374, 5209, -6412, -2626, -154
10780, -5571, -1049, 1716, -7652, -6886, 150
10790, 4903, -3191, -2669, -9686, -20173, 9514
10800, 6169, 427, 113, -9288, -17015, 7756
10810, 14224, 4604, 9662, -6840, -7820, 3261
10820, 16651, 5353, 13184, -3387, 2252, -756
10830, 4105, 5635, 4198, 1614, 12963, -5753
10840, -12638, 5433, -16164, -3284, 2449, -2617
10850, -10756, 6396, -18730, -12141, -15548, 1845
10860, 3438, 7418, -15348, -19563, -30742, 5260
10870, 27259, 10850, -7717, -20045, -32704, 6533
10880, 32748, 23914, -17496, 2949, -20800, -8675
10890, 28500, 25673, -30341, 12209, -12095, -4570
10900, 25970, 18753, -31198, 9907, -4812, 15385
10910, 32715, 6474, -16263, -1673, 462, 32766
10920, 32090, 4566, -12394, -2060, 8233, 32526
10930, 31824, 4424, -10475, -1770, 15403, 30414
10940, 32748, 5479, -7346, -3107, 21218, 28436
10950, 32748, 2813, 12784, -6049, 30662, 23688
10960, 32748, -1242, 25101, -2813, 25526, 18028
10970, 32748, -4597, 30547, 3799, 11077, 11820
10980, 18270, 1781, 21019, 15138, -13932, 1424
10990, 13439, 4280, 16610, 13121, -17552, -938
11000, 11821, 4527, 12721, 6476, -13718, -2043
11010, 7304, -1661, 12206, -5889, 887, -3315
11020, 7634, 380, 6019, -4420, 3963, -3106
11030, 6831, 2522, 1962, -3671, 5536, -3065
11040, 75, 3870, -2452, -6075, -244, -4252
11050, -2932, 2794, -810, -7253, -5969, -4205
11060, -4823, 1131, 1380, -6150, -10089, -3167
11070, -4511, -608, 2207, 1076, -13138, -1750
11080, -3372, -1040, 1148, 3762, -11175, -2092
11090, -3156, -1174, 1143, 4596, -8625, -3162
11100, -3070, -955, 939, 4949, -6538, -3898
11110, -2393, -157, 976, 5811, -4827, -3830
11120, -1776, -477, 310, 6636, -4709, -3431
11130, -1355, -1185, 166, 7755, -4328, -2791
11140, 3939, -2375, -3614, 13670, -5655, -1556
11150, 10671, -280, -9180, 16698, -6152, -1960
11160, 23780, 6340, -18291, 10794, 5800, -1177
11170, 32748, 9825, -20428, 2037, 11385, -3509
11180, 32748, 22547, -27661, -7536, 12804, -10071
11190, 32748, 27806, -16917, -24853, -10697, -22309
11200, 32748, 29143, -2491, -19128, -27181, -21069
11210, 32748, 24772, 11870, -2144, -28762, -15856
11220, 32748, 7925, 2435, 32540, 25776, -19420
11230, 29038, 12222, -5267, 32765, 32765, -24409
11240, 30996, 13577, 707, 22730, 32766, -22081
11250, 27806, 11493, 7216, 6897, 32765, -17074
11260, 20986, 9733, 11174, -2835, 30552, -13727
11270, 16432, 10869, 9410, -4862, 18673, -10066
11280, 6786, 15321, 2431, -2960, -5132, -4780
11290, 3083, 14410, -31, -2459, -11559, -2738
11300, 3442, 11501, -300, -2211, -12920, -1097
11310, -1599, 4885, 2749, -2643, -2922, -1631
11320, -2592, 2854, 3357, -2954, 676, -1838
11330, -3029, 2288, 2207, -3713, 1177, -986
11340, -4906, 362, -1064, -5499, -1774, 1597
11350, -3838, -1708, -1472, -9001, -12173, 4400
11360, -2087, -3331, -1282, -9846, -15597, 7117
11370, -1371, -4281, -1471, -10098, -16948, 9114
11380, 711, -4885, -2281, -9549, -18613, 10810
11390, 1847, -4856, -1255, -9204, -18188, 10594
11400, 3704, -3376, 1450, -8421, -15330, 9554
11410, 4767, 433, 2111, -5708, -8999, 5472
11420, 4557, 1098, 2779, -5401, -4757, 3624
11430, 4998, 1231, 3131, -4848, -305, 1956
11440, -3301, 4000, -7940, -4609, 4575, -599
11450, -5935, 5838, -12090, -9253, -538, 450
11460, -1871, 7882, -13759, -15258, -11344, 2508
11470, 32406, 11831, -6212, -15708, -19698, 7552
11480, 32748, 20476, -12059, -3576, -4798, 10384
11490, 32748, 30790, -28920, 6333, 4424, 10272
11500, 32748, 23469, -32730, 1741, 2683, 17555
11510, 32748, 6043, -13820, -8785, 5534, 31909
11520, 32748, 1677, -8543, -3732, 17398, 26685
11530, 32748, 62, -6137, 1606, 20256, 20936
11540, 32748, -574, 2992, 4798, 13948, 12709
11550, 32748, -3162, 22557, 5920, 8533, 9704
11560, 32748, -2774, 24521, 13513, -7165, 6907
11570, 32748, -540, 20479, 20616, -19406, 4940
11580, 17996, 14397, 17742, 5975, -13925, -417
11590, 7883, 1006, 30743, -17986, -7589, -4258
11600, 7662, -11478, 32764, -25006, -2990, -2943
11610, 9372, -8545, 13811, 194, 1168, -814
11620, 8274, -2327, 2186, 7473, 6109, -698
11630, 6248, 2269, -5495, 7707, 8363, -1782
11640, 2923, 4517, -10188, 2892, 6285, -3606
11650, -2924, 3668, -7600, -10860, -11369, -6364
11660, -2465, 1103, 610, -54, -32766, -3890
11670, -1186, 1031, 42, 2769, -32766, -4842
11680, 211, 998, 107, 4670, -28849, -7810
11690, 508, 1104, 88, 4765, -23220, -9337
11700, 618, 1174, -205, 4160, -17789, -11007
11710, -260, -19, 1257, 3314, -9855, -14873
11720, -1266, -957, 1491, 4853, -6216, -15813
11730, -1291, -339, -1313, 8120, -2458, -14875
11740, 3858, 2671, -10536, 11217, 12536, -9147
11750, 5894, 4463, -14514, 9096, 25772, -5694
11760, 9226, 7818, -17890, 4820, 32536, -1553
11770, 25411, 19868, -24220, 688, 32766, 8187
11780, 32748, 32727, -15665, -23065, 31434, 894
11790, 32748, 23059, 3853, -27000, 2764, -6453
11800, 32748, 18246, 16271, -6826, -23397, -10624
11810, 32748, 6213, 10060, 32620, 14503, -17040
11820, 31939, 6056, 4444, 32766, 28848, -16579
11830, 27763, 7886, 1068, 32766, 32148, -16457
11840, 25057, 10991, 2713, 32677, 28539, -17000
11850, 23984, 14002, 4812, 11958, 18223, -11677
11860, 17692, 12324, 5691, -83, 16628, -9418
11870, 11545, 10764, 4850, -6087, 11534, -10561
11880, 171, 8320, 1838, -11107, -154, -12008
11890, -3557, 6076, 325, -11606, -3886, -9094
11900, -4998, 3552, -751, -11368, -7315, -5745
11910, -3888, -1536, 286, -10465, -8205, -580
11920, -3778, -2217, -48, -9638, -5869, 1092
11930, -5011, -2506, -1565, -8984, -5549, 1776
11940, -4240, -4271, -2823, -8716, -15271, 4926
11950, -2744, -4473, -4140, -8124, -20795, 7115
11960, -1980, -4364, -5346, -8054, -24627, 8624
11970, 503, -4963, -2970, -9324, -25541, 10621
11980, 2030, -4414, -321, -9134, -22075, 10836
11990, 3947, -2230, 1972, -7635, -17000, 10312
12000, 21841, 158, 16393, -1570, -4746, 4727
12010, 20089, 2700, 13296, 6528, 11790, -2591
12020, -2203, 6419, -3625, 12438, 26867, -8864
12030, -14136, 7558, -15247, 5968, 21436, -6349
12040, -1079, 5389, -18571, -22697, -15712, 3141
12050, 13469, 5751, -16326, -30185, -24618, 6267
12060, 29675, 10666, -12138, -27666, -14562, 14670
12070, 32748, 23598, -21659, -15856, 5428, 28530
12080, 32748, 14057, -21490, -11709, 2958, 20898
12090, 32748, 5415, -12062, -7871, -3443, 22915
12100, 32748, 382, -6380, 2725, 1343, 15978
12110, 32748, -2130, -2468, 4122, 4019, 12038
12120, 32748, -2163, 6196, 4665, 5738, 7659
12130, 32748, -2020, 11786, 7961, 5447, 4239
12140, 27955, 546, 12054, 20587, -1096, 2249
12150, 20972, 4268, 10671, 22473, -9421, 896
12160, 17955, 8167, 11577, 15606, -13743, 413
12170, 9473, 6457, 23070, -16212, -4933, -1354
12180, 6738, -3424, 30359, -25933, 4412, 17
12190, 8653, -8891, 27680, -21844, 10367, 1819
12200, 9977, -1411, 8788, 2583, 13856, 901
12210, 8667, 4054, -2438, 9318, 11437, -1875
12220, 3707, 7047, -9164, 8315, 5578, -4575
12230, -1038, 6711, -9852, 2075, -4063, -5763
12240, -4267, 649, -626, -6348, -25311, -3553
12250, -4335, -417, 1564, -4497, -31469, -3277
12260, -4018, -1489, 2591, -1438, -32765, -4332
12270, -1696, -1502, 974, 4710, -32226, -7677
12280, -1410, -745, -215, 6692, -29586, -10371
12290, -1370, -272, -985, 7407, -26265, -13443
12300, -3331, 121, -1493, 7031, -16796, -16026
12310, -3948, -768, -1908, 7266, -11858, -14943
12320, -4167, -915, -4701, 8385, -6707, -12591
12330, 374, 2697, -12993, 7637, 6465, -4774
12340, 4321, 5508, -17710, 3477, 17511, 97
12350, 8326, 7362, -19397, -3242, 29579, 4533
12360, 32748, 25729, -28501, -14965, 32766, 7981
12370, 32748, 32748, -23214, -21893, 32766, -7008
12380, 32748, 32748, 1288, -22958, 24548, -18200
12390, 32748, 24116, 13209, -9095, -14884, -9770
12400, 32748, -8602, 26519, 31620, 15086, -10495
12410, 32738, -240, 5675, 32766, 32550, -13920
12420, 24597, 8798, -1681, 32766, 32764, -16772
12430, 23620, 16824, 6227, 16906, 21731, -13180
12440, 22452, 16787, 8217, 871, 15933, -8747
12450, 17328, 18432, 6268, -5209, 9550, -7747
12460, 11376, 19447, 2633, -6123, 2313, -7684
12470, 4879, 15425, -1793, -8822, -6228, -3715
12480, 3758, 11755, -1457, -11054, -8061, -942
12490, 2460, 8506, 285, -11685, -8862, 875
12500, 607, 3088, 2297, -9494, -7582, 1307
12510, 654, 410, 3146, -9477, -5161, 994
12520, 136, -520, 2156, -10183, -1950, 928
12530, -2003, -1627, 975, -11484, -1350, 716
12540, -2092, -3904, -477, -12945, -9117, 3674
12550, 301, -4746, -2412, -12170, -20995, 7002
12560, 14, -3472, -1115, -10569, -17692, 5886
12570, -393, -2392, -193, -8551, -13875, 4928
12580, 3259, 341, 4366, -5404, -6845, 4447
12590, 9395, 764, 7053, -3517, -2189, 3158
12600, 4347, 2578, 1416, -303, 4147, -335
12610, -3384, 4381, -9180, -298, 6246, -2494
12620, 2741, 6931, -15200, -14723, -7872, 1627
12630, 19915, 8573, -11085, -18782, -12381, 5057
12640, 32748, 15560, -8856, -13278, 1480, 13255
12650, 32748, 29461, -26080, -5007, 13704, 23403
12660, 32748, 14238, -12754, -12642, 839, 20958
12670, 32748, 8449, -6348, -9244, -3377, 19077
12680, 32748, 2629, -1790, 674, -190, 13889
12690, 32748, -608, 719, 2183, -1426, 14284
12700, 32748, -2171, 7301, 2360, -1798, 12973
12710, 32748, -2973, 14154, 4075, -3785, 8918
12720, 32748, -802, 13031, 9114, -5112, 2674
12730, 24372, 1839, 15354, 6049, -8516, 1222
12740, 17553, 4281, 18624, -1506, -12692, -1559
12750, 6285, -4324, 27549, -21960, -6421, -4643
12760, 5160, -11408, 30349, -21918, -944, -1889
12770, 6031, -12790, 25665, -12472, 3781, 477
12780, 7334, -1445, 6067, 8284, 13081, 1130
12790, 7681, 4134, -3528, 10839, 11497, -996
12800, 4629, 7905, -11759, 7556, 5653, -4013
12810, -2283, 5169, -10197, -9792, -17937, -6849
12820, -3751, 1599, -3049, -13185, -28561, -5056
12830, -3122, 163, -1158, -10423, -32677, -3730
12840, -1216, -1170, 2371, -2193, -32766, -5758
12850, 126, -804, 2819, 2116, -32766, -7860
12860, 682, -128, 2018, 4950, -32380, -10382
12870, 1022, 224, 1121, 5833, -28394, -12996
12880, 967, 83, 752, 3633, -16131, -17869
12890, 360, -962, 1363, 2946, -10821, -20439
12900, -654, -1865, 883, 4347, -6883, -23055
12910, -3932, -988, -3540, 10237, 687, -22042
12920, -1139, 1228, -8823, 11500, 5368, -17938
12930, 2403, 3763, -13747, 9385, 14596, -12612
12940, 11239, 9389, -22551, -4421, 32717, -3903
12950, 26013, 21104, -28456, -12298, 32765, -1355
12960, 32748, 32748, -32598, -19894, 32766, 1055
12970, 32748, 32748, -14189, -25780, 32002, 5648
12980, 32748, 26821, 8836, -1768, -9573, -5627
12990, 32748, 4623, 23810, 19217, 6459, -10799
13000, 31702, 2144, 9116, 32102, 29650, -13275
13010, 32748, 7309, 5435, 32766, 32766, -13549
13020, 32142, 14221, 5480, 30226, 32766, -13122
13030, 18186, 14426, 14992, 11550, 32764, -10490
13040, 2628, 16641, 11114, -4561, 16234, -8606
13050, -145, 16847, 6477, -3692, 2129, -9428
13060, -1791, 17903, 1925, -2994, -8986, -10397
13070, -2747, 16192, -930, -4847, -15178, -9328
13080, 126, 10592, -3505, -10296, -14509, -1810
13090, -333, 8150, -2455, -12404, -11697, -132
13100, -1312, 5816, -1387, -14029, -10826, -72
13110, -3245, 630, 317, -15728, -14676, 278
13120, -3555, -904, 1, -15681, -18264, 1370
13130, -2536, -2703, -24, -15364, -21135, 3929
13140, -994, -4467, -12, -14262, -22954, 7139
13150, -1062, -5384, -1937, -10599, -26195, 10681
13160, -1126, -5457, -2463, -9858, -28187, 11321
13170, -484, -5515, -2801, -9725, -29102, 11592
13180, 2392, -4384, -168, -8476, -23698, 11766
13190, 3811, -2103, 812, -6285, -17862, 10561
13200, 4888, -275, 2719, -4657, -11312, 8065
13210, 2101, 2580, -990, -1073, 2432, 2354
13220, -3747, 3627, -9642, -2260, 5470, 300
13230, -6906, 5459, -15335, -8449, -174, -664
13240, 12508, 7773, -14010, -23980, -21923, 2018
13250, 32748, 17297, -9641, -21948, -17736, 6522
13260, 32748, 32748, -23396, -8600, 2879, 16581
13270, 32748, 21829, -24026, -11270, 22029, 26433
13280, 32748, 11321, -9933, -14808, 14544, 27708
13290, 32748, 4402, -724, -10402, 15520, 23384
13300, 32748, -1621, 4908, 4094, 9231, 18634
13310, 32748, -4683, 14261, 7063, 8149, 16194
13320, 32748, -5589, 18971, 10652, 4579, 11538
13330, 32747, -4604, 19763, 15183, -2885, 6391
13340, 17989, 40, 15557, 15033, -16551, 3785
13350, 12053, 2538, 16872, 2378, -20091, -195
13360, 6481, 728, 23385, -11117, -18273, -3963
13370, 3646, -2312, 25993, -16367, -11224, -3398
13380, 7752, -2530, 14542, -7642, 7444, 873
13390, 10350, -817, 5681, -3639, 14691, 1372
13400, 10144, 1328, -2829, -2257, 16097, -45
13410, 6087, 3306, -8851, -3585, 11310, -2753
13420, -2750, 3892, -8618, -10211, -16213, -5250
13430, -1479, 192, 8792, 5376, -32722, -8604
13440, -1255, -244, 6675, 8212, -28870, -9821
13450, -1576, -323, 2639, 8431, -18642, -10778
13460, -2083, -1553, 1166, 5370, -5325, -10798
13470, -1045, -2763, 2018, 6509, -341, -10263
13480, -1804, -3640, 1854, 10148, 3569, -10898
13490, -2362, -3428, 270, 14468, 5331, -11297
13500, 2832, -280, -8066, 19156, 7170, -7874
13510, 5327, 3637, -15316, 16966, 12515, -5878
13520, 12123, 9222, -23018, 10419, 21053, -2432
13530, 32748, 32191, -32748, -15352, 32766, 2780
13540, 32748, 32748, -32748, -29803, 32762, -8547
13550, 32748, 32748, -2995, -32656, 23178, -28381
13560, 32748, 20569, 2184, -21606, -17368, -18770
13570, 32748, 5597, 5579, 25731, -12867, -8226
13580, 32748, -915, 6322, 32555, 22865, -15505
13590, 32748, 2532, 2512, 32766, 32743, -17426
13600, 32748, 11785, 13822, 28112, 32766, -14939
13610, 26460, 12247, 21053, 10366, 32714, -12736
13620, 15697, 15874, 18218, -231, 27220, -12214
13630, 8757, 19263, 10165, -3218, 14315, -11575
13640, 1851, 20649, 1474, -10460, -3609, -10185
13650, -66, 17389, 2010, -13937, -9067, -9054
13660, 1223, 9439, -637, -14526, -12579, -3575
13670, 920, 6659, -2726, -14485, -11878, -1235
13680, -6, 3963, -2304, -15353, -10994, 482
13690, -2853, 451, -1339, -15731, -10917, 1281
13700, -4272, -1359, -1146, -15243, -12871, 1540
13710, -4276, -3325, -491, -14009, -16342, 2740
13720, -3601, -4254, -605, -11928, -19922, 4614
13730, -2188, -4702, -3140, -8574, -24306, 8351
13740, -1783, -5165, -3607, -8824, -24638, 10010
13750, -1706, -5445, -2920, -9778, -24047, 11374
13760, 1372, -4522, 2308, -10986, -19687, 12706
13770, 3527, -2129, 3779, -9127, -15405, 12044
13780, 9590, 599, 2540, -6676, -10010, 10377
13790, 1591, 4911, -5565, -4993, 7552, -2373
13800, -3507, 6805, -8618, -8698, 4108, -6074
13810, 1044, 10427, -12781, -14399, -9465, -7842
13820, 24767, 18330, -13908, -20166, -24054, -10662
13830, 32748, 32748, -26166, -15630, -6754, -7693
13840, 32748, 31799, -30458, -13988, 214, 11474
13850, 30613, 18167, -23394, -18906, 5604, 23395
13860, 32748, 8453, -9191, -17625, 18726, 32763
13870, 32748, -833, -451, -14522, 22326, 31756
13880, 32748, -4344, 4552, -5945, 22659, 26762
13890, 32748, -2844, 8506, 6536, 6609, 19428
13900, 32748, -3903, 15654, 8296, -36, 14984
13910, 32748, -3515, 19887, 11154, -6430, 9705
13920, 21546, 4437, 17708, 14605, -10556, 4761
13930, 12948, 10847, 15989, 8285, -11295, 591
13940, 9296, 10396, 16927, -7375, -10720, -2436
13950, 6024, -5970, 25182, -24396, 6332, -1850
13960, 6740, -5844, 18395, -15885, 8180, -669
13970, 7533, 2382, 1508, -2437, 6081, -2941
13980, 5010, 5319, -5637, -2321, 3181, -5461
13990, -27, 6449, -8493, -6382, -2556, -6980
14000, -4533, 1294, -50, -11520, -11475, -4377
14010, -6505, -10, 2875, -8541, -22830, -2438
14020, -7839, -706, 4524, -2468, -23662, -1141
14030, -7584, -1363, 4135, 2808, -21924, -268
14040, -4192, -1253, 582, 5539, -18479, -2561
14050, -2615, -1453, 182, 4352, -16917, -3665
14060, -1391, -912, -174, 3742, -15523, -3956
14070, -1098, -612, -435, 3835, -14307, -4310
14080, -426, -1515, -2146, 6882, -10674, -4416
14090, 1227, -1389, -4511, 9713, -8615, -3869
14100, 13521, 2416, -17716, 9545, 190, -3075
14110, 26865, 4857, -20652, 3094, 10270, -3316
14120, 32748, 9975, -24694, -4465, 25230, -4078
14130, 32748, 27612, -29136, -22209, 21806, -28215
14140, 32748, 32748, -14571, -25257, 1447, -30414
14150, 32748, 32748, 2069, -17076, -17539, -15740
14160, 32748, 19765, 14686, -40, -19223, -2782
14170, 32748, -10914, 19343, 32401, 31105, -14850
14180, 32747, -2945, 5058, 32765, 32766, -20883
14190, 27390, 10869, -1569, 32766, 32766, -22915
14200, 16593, 20184, 6477, 28870, 32709, -15541
14210, 11135, 18116, 8490, -6620, 18225, -11839
14220, 7409, 18575, 6356, -9140, 9052, -9585
14230, 4235, 18070, 3783, -9300, 830, -8604
14240, -500, 11961, 926, -7854, -8085, -6828
14250, -1013, 8850, 525, -7048, -8208, -4279
14260, -1217, 6466, 1481, -7198, -6465, -1323
14270, -1686, 2004, 4426, -9314, -5264, 494
14280, -2291, 1060, 3741, -10510, -5158, 847
14290, -3928, -3676, -1500, -15801, -18594, 8041
14300, -895, -4121, -3462, -14641, -26281, 11574
14310, 365, -4292, -2858, -13687, -27417, 11968
14320, 1894, -3943, -2628, -12216, -25677, 12011
14330, 4864, -1960, -1650, -9019, -16903, 9632
14340, 5979, -915, 532, -7720, -11371, 6994
14350, 7328, 450, 868, -6210, -4902, 3977
14360, -374, 4448, -8680, -4615, 1910, -1231
14370, -2232, 9193, -13520, -9686, 2185, -1849
14380, 6764, 17460, -17717, -17339, -7601, -2567
14390, 25477, 25094, -13079, -25426, -14555, -3284
14400, 32748, 32748, -17925, -11923, -4077, 8689
14410, 32748, 18991, -22656, -3702, -11430, 10861
14420, 32748, 8023, -21180, -431, -4998, 13367
14430, 32748, 8177, -18495, 1318, 5089, 19920
14440, 28459, 2237, -9084, -7813, 19885, 25888
14450, 32748, -1159, -5110, -10891, 18684, 25429
14460, 32748, -3976, 4056, -11787, 13607, 22677
14470, 32748, -2552, 21035, -2832, -7560, 7314
14480, 32748, 852, 19771, 6251, -12604, -202
14490, 25483, 4827, 18352, 13019, -9914, -1573
14500, 18040, 12715, 15014, 11480, -5003, 378
14510, 9417, -2864, 23970, -21033, 6440, -498
14520, 8884, -9562, 22969, -22892, 10941, 67
14530, 7502, -6726, 9737, -6320, 8181, 788
14540, 6415, -1672, 3168, -964, 3681, -644
14550, 5333, 2271, -1715, 308, -974, -1921
14560, -1283, 5347, -4617, -4454, -11671, -5196
14570, -4423, 3969, -861, -7107, -15816, -5033
14580, -6199, 2030, 3114, -6558, -17896, -3553
14590, -5503, 946, 3877, -2727, -17158, -2015
14600, -3867, -1086, 1001, 2408, -9557, -2979
14610, -3911, -1542, 636, 2191, -7067, -3890
14620, -3272, -1746, 248, 1908, -6797, -3593
14630, -2818, -1746, 784, 1992, -7394, -3045
14640, -1348, -3031, 1214, 4765, -7425, -1814
14650, 405, -4415, 179, 8424, -6475, -1183
14660, 2928, -4436, -2308, 13794, -5802, -1049
14670, 18705, 1800, -14914, 19187, 719, -307
14680, 28938, 6186, -19211, 13259, 11287, -2008
14690, 32748, 11159, -20084, 3229, 23269, -6823
14700, 32748, 23339, -22976, -24492, 15061, -25940
14710, 32748, 29692, -10723, -32452, -12171, -31756
14720, 32748, 32748, -618, -28041, -31308, -26286
14730, 32748, 14238, 15371, 15307, -20232, -16906
14740, 32660, 5947, 4733, 31681, 16634, -20669
14750, 28464, 7097, -5864, 32766, 32423, -23118
14760, 32559, 7635, 647, 31491, 32766, -18747
14770, 26259, 7540, 7637, 22414, 32766, -14132
14780, 17971, 7909, 11148, 11459, 32597, -12311
14790, 9946, 14403, 9204, 3064, 12376, -8668
14800, 6695, 17202, 5070, 2429, 1871, -7308
14810, 2553, 17605, 1541, 546, -6119, -7160
14820, -1605, 16368, 1759, -2903, -11260, -6482
14830, -2459, 7421, 4406, -7029, -13113, -2281
14840, -410, 3990, 5660, -8073, -11054, 80
14850, 481, 2590, 5328, -8727, -10635, 680
14860, -1228, 1363, 2959, -10751, -9380, 954
14870, -2141, 129, 1342, -11809, -9849, 2651
14880, -2880, -1962, 199, -12605, -12259, 4781
14890, -2908, -3963, -1463, -12771, -15528, 7415
14900, 519, -4458, -2302, -13225, -20356, 11791
14910, 397, -3943, -2728, -13301, -21848, 11098
14920, 1556, -2878, -1980, -13245, -22427, 9836
14930, 2689, -867, -993, -12744, -21316, 8536
14940, 8866, 285, 5439, -10046, -14058, 5325
14950, 14160, 1402, 8043, -5244, -6272, 1575
14960, -4951, 6630, -10345, 1848, 8793, -4614
14970, -7440, 10707, -17467, -5409, -262, -3582
14980, -3103, 14626, -20442, -17790, -16951, -2634
14990, 29326, 17661, -8533, -31017, -27519, 4302
15000, 32748, 24969, -12886, -17558, -11034, 13016
15010, 32748, 24419, -24504, -1975, -3828, 14129
15020, 32748, 7361, -20275, 444, -4355, 19446
15030, 32748, 4733, -14837, -1327, 4290, 24611
15040, 31004, 901, -11323, -3903, 13016, 26025
15050, 32748, -1468, -9086, -5734, 16751, 25270
15060, 32748, -2230, 864, -9102, 20662, 19176
15070, 32748, -620, 8815, -10323, 18677, 13100
15080, 32748, 146, 18955, -10383, 10506, 5620
15090, 22345, 7998, 17561, -126, -1882, 3134
15100, 17903, 9943, 19706, -5119, 670, 4223
15110, 14418, 663, 24901, -15322, 5076, 3047
15120, 13759, -5904, 23095, -16393, 7614, 1002
15130, 5496, -7094, 13295, -5870, 4479, -809
15140, 5131, -3641, 5790, -463, -1265, -554
15150, 5021, -722, 709, 2330, -5621, -1179
15160, 1445, 3230, -4143, 2636, -9946, -3753
15170, -4556, -1449, 3308, 5371, -9102, -2544
15180, -4011, -832, 2008, 6126, -7671, -3589
15190, -3374, -746, 1300, 4362, -5739, -5135
15200, -3025, -407, 1061, 4258, -7332, -4967
15210, -2521, -396, 980, 4968, -10195, -4894
15220, -814, -1058, 254, 7832, -15280, -5469
15230, 549, -2301, -677, 11146, -16841, -5349
15240, 7327, 192, -6927, 15756, -17857, -3797
15250, 13374, 4333, -12130, 16560, -15297, -2792
15260, 28223, 12619, -19029, 1694, -5784, -10399
15270, 32744, 16957, -22198, -8711, 1290, -17407
15280, 31679, 20463, -20522, -18259, 3481, -24498
15290, 32748, 25745, -10101, -17241, -10563, -21342
15300, 32748, 28380, -11876, -4716, -15033, -13359
15310, 32748, 21857, -9214, 6815, -8003, -8492
15320, 32748, 9421, 1189, 15570, 11533, -11594
15330, 32748, 3254, 1818, 32403, 32766, -21767
15340, 32748, 5233, 2935, 32766, 32766, -20760
15350, 31703, 9420, 4831, 32757, 32766, -19085
15360, 16305, 16605, 6918, 17222, 32048, -11778
15370, 10666, 17768, 8229, 6412, 23916, -8678
15380, 4634, 19096, 3432, 1384, 12666, -6269
15390, 543, 17938, -973, -1542, -2517, -7303
15400, 866, 14014, -1080, -4007, -4422, -7426
15410, 1133, 10542, 1166, -5955, -3041, -5735
15420, 626, 4295, 3031, -8875, -7274, -3871
15430, -188, 1709, 3385, -10913, -9145, -3718
15440, -2026, -139, 2854, -12679, -9010, -3696
15450, -5468, -2633, 626, -14880, -11017, -2342
15460, -7230, -3412, -448, -15405, -14795, -423
15470, -7536, -3893, -1666, -15294, -20407, 2820
15480, -3264, -4565, -3946, -14051, -29500, 11040
15490, -1235, -4408, -4421, -13705, -32009, 13002
15500, 582, -4638, -3697, -13362, -32448, 13589
15510, 4591, -3169, -1789, -12552, -30516, 13221
15520, 7245, -1989, 246, -9659, -21760, 8658
15530, 14781, -1139, 5996, -7668, -15129, 4860
15540, 22631, -168, 11399, -2432, -3757, -1687
15550, -7269, 4617, -12060, 4483, 10457, -12247
15560, -12454, 7637, -18014, -2918, 2160, -8949
15570, -7160, 9593, -19806, -13742, -13439, -3056
15580, 27581, 12156, -13200, -21545, -23831, 11876
15590, 32748, 27107, -26670, -11806, -10268, 21352
15600, 32748, 31928, -27657, -8048, 287, 21905
15610, 32748, 12509, -14795, -8501, 5175, 18992
15620, 31554, 6545, -8270, -8238, 7988, 20992
15630, 26588, 3009, -5897, -6269, 7967, 21312
15640, 32748, 72, -4805, -4024, 3592, 22117
15650, 32748, -3229, 1917, -436, 12948, 13914
15660, 32748, -2996, 11460, 1773, 21294, 6507
15670, 30476, -3835, 17957, 6307, 17615, 4000
15680, 20916, -3476, 18007, 17599, -6284, 3599
15690, 14952, -811, 15932, 19447, -16498, 888
15700, 9888, 1792, 13644, 13686, -21676, -1705
15710, 6153, -2231, 22292, 1918, -18946, -2773
15720, 5486, -3917, 21664, -8414, -2782, 17
15730, 6694, -1130, 14271, -2932, 5219, 1068
15740, 6995, 2020, 5021, 1709, 11609, 453
15750, 2011, 4531, -6709, -2421, 12432, -3931
15760, -1944, 3418, -6471, -8076, 6440, -5138
15770, -3214, 572, -2307, -11661, -2436, -4717
15780, -4452, -2008, 1766, -5736, -15340, -2858
15790, -3597, -1925, 843, -672, -20316, -2820
15800, -2404, -1204, -600, 2968, -24579, -3767
15810, -1488, -685, -1701, 4802, -27536, -5241
15820, -1192, -255, -1340, 5774, -29844, -9047
15830, -761, -759, -870, 6356, -29715, -10957
15840, -1939, -1677, -778, 10828, -24295, -14377
15850, -3336, -1244, -2079, 14035, -19933, -14648
15860, -1120, 1617, -7500, 16620, -14068, -12072
15870, 9675, 6300, -18677, 10853, 8804, -4329
15880, 13242, 6966, -20850, 2378, 24833, -3106
15890, 24093, 12525, -24211, -5925, 32553, -1932
15900, 32748, 32748, -27513, -24212, 32574, -8058
15910, 32748, 31231, 5328, -28503, 15466, -14669
15920, 32748, 13493, 32764, -5417, -8448, -17480
15930, 28750, 8023, -2533, 27589, 31846, -25270
15940, 22051, 9180, -5769, 32766, 32766, -24600
15950, 20969, 11298, -4675, 32045, 32766, -21874
15960, 21564, 11704, -310, 23662, 32766, -18460
15970, 18255, 9825, 7203, 7213, 28973, -9516
15980, 13483, 12499, 7201, 5058, 19924, -7687
15990, 8471, 14275, 4012, 5170, 10074, -7137
16000, 4982, 14286, 1784, 4376, 2391, -7290
16010, -2541, 10594, 934, 417, -4574, -8994
16020, -3425, 7351, 2107, -2174, -2089, -6388
16030, -4288, 4161, 4410, -5254, 1188, -3701
16040, -6870, -2937, -3080, -16340, -22673, 5432
16050, -4189, -4486, -3333, -16040, -29316, 9477
16060, -1162, -4750, -4464, -14781, -32484, 12452
16070, 3122, -4637, -3919, -11684, -32315, 13244
16080, 4154, -4524, -2294, -10301, -28636, 12144
16090, 5466, -3632, -468, -8903, -22517, 10316
16100, 9612, -361, 3866, -5228, -8001, 4132
16110, 16660, 799, 9342, -3076, 881, -235
16120, 7697, 2379, 3577, 1204, 14130, -5862
16130, -10994, 7806, -15065, -3454, 14156, -7251
16140, -4829, 9182, -16183, -13637, -4144, -3869
16150, 12079, 7711, -9998, -20877, -17866, 426
16160, 32748, 22173, -17051, -16993, -16036, 5488
16170, 32748, 28060, -28492, 3026, -6766, 15265
16180, 32748, 19857, -26162, 664, -9822, 17723
16190, 32748, 12789, -18984, -3777, -9871, 27547
16200, 32748, 5901, -8926, -7705, 11399, 26280
16210, 32748, 1870, -4415, -8739, 13979, 24727
16220, 32748, -552, 1272, -6892, 14103, 22005
16230, 32748, -4947, 22071, 4758, 13704, 9516
16240, 32748, -6323, 19713, 15514, 2173, 5534
16250, 28773, -5770, 17230, 22390, -5254, 5334
16260, 15285, 1877, 13779, 22252, -18309, 851
16270, 11875, 5758, 13169, 9720, -16993, -2240
16280, 6355, 3161, 18348, -6773, -5353, -3931
16290, 5245, -4595, 17219, -12476, 10871, -715
16300, 4374, -2253, 8704, -5492, 12132, 241
16310, 5695, 808, 1692, -1118, 10603, 259
16320, 447, 4515, -8427, -4964, 445, -4419
16330, -2146, 3285, -6844, -10265, -9265, -5474
16340, -3274, 825, -1759, -12637, -18086, -4428
16350, -3731, -496, 1605, -9766, -24822, -3243
16360, -2072, -193, -535, 461, -32704, -3948
16370, -1178, -82, -759, 2820, -32766, -5557
16380, -699, 261, -1351, 4223, -32766, -7628
16390, 200, 277, -644, 5041, -31909, -12045
16400, 78, 107, -249, 5300, -27803, -14287
16410, -582, -497, -505, 5624, -22248, -16406
16420, -1192, -1660, -280, 6602, -15959, -17594
16430, -1287, 1657, -7199, 12527, -1457, -13054
16440, 4022, 3869, -12541, 12948, 8750, -7844
16450, 10019, 5904, -19714, 9457, 24089, -3960
16460, 14889, 7093, -28293, 2463, 32492, -2888
16470, 32748, 32748, -32748, -9062, 32766, 8306
16480, 32748, 32748, -14031, -20003, 30941, -2936
16490, 32748, 12464, 25508, 5544, -10820, -9908
16500, 32748, 2572, 20178, 29016, 14699, -17024
16510, 31373, 7435, 1981, 32766, 32176, -19625
16520, 23045, 19024, -6229, 31557, 30270, -23429
16530, 23983, 20814, -3049, 15837, 25514, -19438
16540, 22388, 21361, -3839, -7472, 24444, -13906
16550, 11971, -326, 27877, -21867, 21314, -10332
16560, 11050, 18306, -2862, 4831, 2946, -3297
16570, 3454, 13051, -1363, 2139, -8030, -8012
16580, 1816, 11155, -2544, 57, -12223, -7375
16590, 726, 6545, -1519, -4464, -5846, -2960
16600, 614, 2607, 2591, -8222, 42, -106
16610, 509, -513, 5416, -11175, 3331, 1442
16620, -1887, -1394, 5497, -12892, 4131, 1055
16630, -10534, -1957, -2290, -14108, -6038, -89
16640, -10353, -3520, -3910, -13580, -18323, 2429
16650, -6421, -3983, -5392, -11878, -28429, 6716
16660, -286, -5002, -6580, -9700, -32766, 10942
16670, 1855, -4958, -5992, -9126, -32740, 11043
16680, 2928, -4927, -4065, -9100, -30579, 10476
16690, 7073, -2844, 4929, -7212, -16714, 8688
16700, 31162, -65, 17698, -3706, -7858, 6561
16710, -6722, 5175, -4968, 3283, 15200, -643
16720, -16983, 4671, -14642, 1209, 21460, -3707
16730, -13585, 4108, -17316, -10553, 1203, 1360
16740, 10493, 2959, -13088, -24648, -27296, 5456
16750, 25476, 11006, -15184, -21243, -20722, 8093
16760, 32748, 32748, -32179, -7464, 10358, 27369
16770, 32748, 27370, -20074, -12058, 4530, 22814
16780, 32748, 17252, -14656, -10996, 993, 20815
16790, 30058, 7343, -2573, -8082, 1758, 20713
16800, 32748, 2083, 709, -5113, -988, 19203
16810, 32748, -3527, 9161, -1928, 370, 16275
16820, 32748, -5472, 14985, 3403, 3342, 9645
16830, 31515, -5444, 16047, 15245, -3879, 2573
16840, 23151, -4477, 16915, 19500, -6374, 2258
16850, 19182, -1077, 13794, 18425, -10630, 819
16860, 11939, -247, 15950, 9315, -10308, -1697
16870, 9621, -1406, 18616, -6486, -1692, -1234
16880, 7760, -1351, 16708, -8958, 2937, -1127
16890, 6847, 411, 11402, -7172, 5934, -964
16900, 5314, 4583, -2108, -5726, 7091, -2537
16910, -3015, -297, 2680, -10399, -16598, -3271
16920, -2857, -1411, 1704, -1878, -22703, -3265
16930, -2562, -1706, 1300, 1111, -23106, -3921
16940, -2110, -1101, -37, 3789, -22753, -4790
16950, -1937, -800, -860, 5338, -22217, -6301
16960, -1805, -794, -999, 6986, -22314, -10641
16970, -2107, -812, -933, 7846, -21211, -12676
16980, -3382, -1026, -1188, 8765, -18564, -14189
16990, -5432, -755, -5473, 12082, -13482, -12754
17000, 659, 2842, -11672, 13258, -8744, -8292
17010, 7673, 5652, -17769, 10368, 1984, -4055
17020, 11033, 6419, -19520, 3421, 18758, -1924
17030, 32748, 23395, -24722, -9488, 32766, 1203
17040, 32748, 32748, -31313, -17220, 32765, 1836
17050, 32748, 32748, -4629, -29505, 29571, -12973
17060, 32748, 249, 32764, 14624, 1851, -12922
17070, 32748, 4819, 7650, 32554, 29352, -18364
17080, 26470, 8443, -1190, 32766, 32125, -23137
17090, 26841, 10889, -3462, 32272, 27830, -25109
17100, 25268, 11322, 4297, 4122, 30987, -17695
17110, 17779, 10554, 8295, -6228, 26096, -13066
17120, 11651, 10802, 7419, -6929, 14687, -10543
17130, 8050, 11943, -1365, -842, -6204, -8550
17140, 6983, 10568, -3973, 64, -7929, -8787
17150, 2566, 6583, -2744, -593, -1920, -5028
17160, -561, 4758, -182, -1063, 601, -3859
17170, -1379, 3050, 3811, -2808, 3124, -1374
17180, -3740, 1529, 3433, -8707, 37, 2067
17190, -6478, 683, -669, -10961, -7260, 1954
17200, -8108, -345, -3730, -11359, -16300, 2678
17210, -5750, -1711, -5098, -10484, -24083, 5119
17220, 253, -3320, -4156, -8570, -27495, 9539
17230, 1642, -4183, -2476, -8211, -24030, 9954
17240, 4692, -5085, 425, -8111, -18954, 9476
17250, 7549, -1522, 10123, -5954, -5599, 4031
17260, 8873, 1865, 11318, -1722, -2158, 751
17270, 16610, 3682, 16131, 860, 2667, -1628
17280, 7130, 3777, 9903, 2863, 11426, -4434
17290, -9677, -884, -10985, -3157, 3895, -1788
17300, -8246, 225, -16021, -8509, -4772, 2143
17310, -3313, 1716, -17344, -13817, -13032, 4813
17320, 25374, 6986, -7176, -16066, -14047, 9151
17330, 32748, 20784, -10013, -7184, -5037, 8925
17340, 32748, 32748, -22268, 3777, 135, 2163
17350, 32748, 17514, -25691, -2346, -14597, 22737
17360, 32748, 9637, -15826, -5282, -12080, 32260
17370, 32748, 5542, -6931, -6002, 3602, 31238
17380, 32748, 2438, -628, -4995, 11720, 24895
17390, 32748, 55, 6107, -3247, 9243, 18463
17400, 32748, -1451, 14656, 744, 5235, 12123
17410, 32748, -365, 15689, 7780, -4133, 4846
17420, 25561, 2598, 14339, 17841, -9131, 305
17430, 18658, 1785, 19695, 19075, -7555, 1398
17440, 13732, 1974, 18571, 20654, -7101, 2022
17450, 7964, 3344, 11857, 11492, -4491, 614
17460, 8423, 3170, 10940, 275, -1769, -1092
17470, 7840, 3022, 8866, -8204, 1519, -1905
17480, 6398, 2078, 6473, -12585, 3432, -1682
17490, 785, 942, 2736, -14739, -930, -2099
17500, -878, 465, 2606, -14278, -7138, -2273
17510, -3289, -187, 3563, -12988, -14668, -2546
17520, -4332, -619, 797, -9035, -26360, -1300
17530, -4042, -1304, 427, -6960, -28135, -688
17540, -3036, -1591, -210, -4217, -26922, -163
17550, -2460, -896, -941, -1144, -23120, -77
17560, -2984, -2, -2276, 1137, -14374, -1207
17570, -2954, -797, -1417, 1192, -11460, -1758
17580, -2825, -2953, -1636, 6039, -7960, -2827
17590, -62, -460, -6556, 10101, -6062, -2368
17600, 2853, 2675, -11404, 11193, -1837, -1540
17610, 11103, 6960, -17997, 2812, 17036, 713
17620, 28022, 16572, -28011, -3765, 29092, 1998
17630, 32748, 29307, -32748, -13966, 32762, 211
17640, 32748, 32748, -25986, -26080, 31610, -14323
17650, 32748, 28617, 13718, -7120, -28184, -16236
17660, 32748, 13345, 21259, 22446, -19660, -16354
17670, 32748, 11531, 3800, 32723, 19419, -21234
17680, 31412, 17121, -4916, 29173, 32766, -25011
17690, 24233, 13475, 2211, 10398, 32766, -22745
17700, 18375, 10005, 9575, -5109, 32766, -16989
17710, 13422, 7610, 14541, -10776, 31321, -11539
17720, 10001, 11954, 9158, -3819, 2027, -3569
17730, 8772, 14441, 4806, -1528, -9632, -3372
17740, 4408, 15253, 722, -1926, -12609, -4919
17750, 2208, 12758, -589, -3900, -9220, -2918
17760, -656, 8556, -174, -6965, -3347, -465
17770, -1191, 6131, 79, -8317, -4604, -371
17780, -2266, 3952, -485, -10151, -7211, 934
17790, 333, -606, -4111, -12411, -23782, 7910
17800, -842, -2141, -4663, -13178, -23660, 8512
17810, 1441, -5017, -2356, -13209, -25218, 11100
17820, 2823, -5147, -991, -12158, -24048, 11331
17830, 3565, -4822, 1078, -11778, -19725, 9983
17840, 3745, -3066, 6310, -11401, -6916, 5548
17850, 5513, -2029, 9005, -8743, -1866, 3833
17860, 6276, -1250, 9624, -4963, 2071, 1606
17870, 2276, -164, 5328, -1177, 5835, -654
17880, -7358, 3711, -10546, -2614, 5231, 529
17890, -4645, 5425, -13406, -9898, -1272, 2388
17900, 3044, 4840, -9974, -17421, -7849, 3282
17910, 32748, 18878, -1098, -12268, 2100, 3316
17920, 32748, 32748, -28295, -3211, 15061, 11149
17930, 32748, 32748, -31052, -15034, 9975, 29881
17940, 32748, 11978, -9283, -21762, 4480, 19916
17950, 32745, 7842, -1303, -11332, 9651, 14389
17960, 23435, 3157, 2718, -4694, 1583, 10794
17970, 27743, -1291, 4047, 2567, -5229, 13221
17980, 32748, -4436, 10639, 11974, -921, 10207
17990, 32748, -4559, 16733, 12721, -6185, 5164
18000, 32748, -4909, 15886, 14349, -14333, 2555
18010, 23514, -3610, 15661, 15844, -10392, 202
18020, 15426, -2405, 15055, 11004, -10691, -746
18030, 12090, -2039, 14035, 3875, -10413, -1411
18040, 7839, -48, 15374, -5836, -814, 245
18050, 8853, 2288, 10000, -6238, 2984, 464
18060, 8515, 4027, 2264, -7298, 4889, -454
18070, 4880, 3568, -4986, -15994, 1466, -3163
18080, 2377, 2504, -2875, -19435, -3795, -3656
18090, -62, 2524, 1882, -18564, -11094, -3867
18100, -2366, 2579, 3830, -13802, -19360, -4376
18110, -3654, 2808, 1261, -1938, -30838, -4249
18120, -2937, 1827, -621, -95, -32064, -3919
18130, -3206, 516, 214, -105, -29878, -3374
18140, -1441, -515, 355, 1871, -22228, -4262
18150, -864, -680, -62, 2670, -18661, -6355
18160, -1139, -619, -460, 2822, -14796, -8515
18170, -1729, -1921, 33, 2850, -11085, -10282
18180, -5060, -1923, -1844, 7781, -5706, -10907
18190, -1118, 1223, -7246, 9824, -4065, -7837
18200, 4239, 3112, -12011, 7882, 1299, -4028
18210, 10559, 8852, -17158, -4728, 25678, 133
18220, 29733, 20716, -26507, -11541, 32526, 5085
18230, 32748, 32748, -32748, -21455, 32766, 1838
18240, 32748, 32214, 8974, -22711, 4279, -20249
18250, 32748, 12187, 17997, 7625, -27323, -14359
18260, 32748, 3472, 5775, 31193, -2858, -18491
18270, 29049, 12230, -12364, 32556, 32766, -24729
18280, 27840, 12873, -5645, 24200, 32765, -22151
18290, 27659, 12662, 5183, 9104, 32766, -17686
18300, 18258, 16690, 13331, 689, 30150, -11138
18310, 13648, 18743, 10730, 1917, 20584, -8368
18320, 8999, 19608, 8054, 1984, 11305, -6431
18330, 5758, 20005, 6017, 321, 3031, -4741
18340, 2162, 14810, 3689, -4439, -4992, -7019
18350, 2513, 10075, 4947, -8279, -3257, -5737
18360, 3091, 6143, 6647, -12010, -2191, -4259
18370, -398, 2521, 3197, -13723, -6470, -3111
18380, -1910, 2295, 451, -12939, -10234, -2214
18390, -2772, 1884, -1376, -12486, -13792, -846
18400, -3550, 347, -2205, -13300, -20316, 3230
18410, -2451, -1142, -2568, -13650, -23317, 5398
18420, -908, -2660, -2478, -13529, -24623, 7668
18430, 173, -3920, -2933, -12982, -24412, 9444
18440, 1333, -5144, -3344, -11499, -23997, 10535
18450, 2022, -4612, -3440, -10658, -23243, 10158
18460, 2792, -3543, -1203, -9910, -17239, 7500
18470, 2236, -1884, -1643, -8892, -13167, 5626
18480, 2288, -335, -2773, -8468, -9253, 3994
18490, 1465, 2845, -5014, -11215, -919, 1915
18500, 2564, 7585, -6691, -13017, -863, 596
18510, 9004, 17321, -11963, -15090, -6513, -2832
18520, 25795, 21808, -4750, -18815, -11915, -7912
18530, 21563, 27082, -16866, 1091, -3817, -3653
18540, 32748, 32176, -32748, 2279, -17936, 13033
18550, 32748, 18277, -31792, -10086, -31259, 20172
18560, 32748, 8979, -17574, -11962, -7467, 19563
18570, 28613, 6055, -13607, -11218, 2692, 18530
18580, 27551, 6560, -12921, -11213, 4581, 19355
18590, 31566, 7124, -11156, -13975, 3804, 21678
18600, 32748, 4450, 1043, -22576, 11162, 20695
18610, 32748, 621, 19162, -23754, 22329, 12059
18620, 32748, -1848, 25671, -18122, 19125, 5863
18630, 27483, -6349, 28122, 223, 3667, 3567
18640, 19230, -7448, 22598, 8685, 2712, 2990
18650, 12660, -8724, 17531, 11990, 714, 2479
18660, 9977, -8903, 12613, 10956, -3614, 1718
18670, 1285, 5035, -4325, -9274, 2467, -4568
18680, -2227, 3797, -918, -12885, 1280, -4820
18690, -4828, 2041, 3549, -11949, -2706, -3803
18700, -6001, 1261, 5009, -6253, -7480, -2683
18710, -5101, -1107, 1457, 5126, -11632, -2649
18720, -4643, -1797, 754, 6307, -11248, -3296
18730, -3518, -2149, 382, 6133, -11283, -3864
18740, -2316, -1613, 882, 6903, -11639, -4997
18750, -2241, -1425, 1405, 8423, -11872, -5835
18760, -3137, -2061, 931, 11153, -12425, -6502
18770, -2645, -1899, -1756, 14838, -13443, -6343
18780, 8819, 2053, -12561, 16757, -13775, -5599
18790, 14938, 3787, -16703, 10835, -6777, -6096
18800, 18667, 6908, -18937, 1604, 6665, -5775
18810, 32748, 18672, -24183, -19022, 31936, -7954
18820, 32748, 26478, -24469, -28878, 32286, -16453
18830, 32748, 29518, 209, -32244, 18249, -25107
18840, 32748, 21447, 30837, -14859, -9068, -25736
18850, 32748, 6502, -8914, 32765, 16784, -24925
18860, 32745, 5974, -11842, 32766, 31409, -25246
18870, 28199, 6644, -8272, 32099, 32766, -22459
18880, 25353, 9938, 7139, 12562, 32766, -13590
18890, 22935, 14520, 12964, 5021, 30078, -11010
18900, 17492, 18637, 11797, 3029, 18372, -9045
18910, 9293, 22131, 921, 2470, -1303, -6834
18920, 7851, 22719, -2048, 326, -6220, -6264
18930, 4436, 20226, -2766, -2554, -7180, -6801
18940, -190, 10745, 1191, -6659, 57, -5329
18950, -741, 5808, 3848, -7221, 1844, -3814
18960, -1747, 2146, 3576, -7280, 915, -3046
18970, -2972, -2, 3090, -8083, -1542, -3230
18980, -5365, -1037, 263, -10016, -7943, -1948
18990, -5167, -1037, -1394, -11225, -11037, 481
19000, -6236, -1396, -2381, -12616, -14205, 2605
19010, -5236, -3170, -2220, -15304, -23881, 7670
19020, -3492, -3910, -2201, -15329, -28070, 9844
19030, -1347, -4123, -2002, -14613, -30225, 11311
19040, 1465, -4166, -732, -13345, -30286, 11949
19050, 17644, -3019, 9358, -7070, -24209, 8572
19060, 32748, -1305, 23663, 1165, -14745, 350
19070, 19607, 1574, 8189, 13235, 7961, -15257
19080, -20740, 5173, -16887, 6802, 14925, -10993
19090, -19969, 6758, -22641, -7565, 708, -751
19100, 433, 7103, -20848, -23820, -19190, 7144
19110, 25194, 13410, -16763, -32766, -32766, 16476
19120, 32748, 26783, -14084, -30847, -28817, 21333
19130, 32748, 32748, -17473, -16182, -15957, 24315
19140, 32748, 24402, -23859, 1271, -1198, 20803
19150, 32748, 12435, -15787, -5260, 8213, 30899
19160, 32748, 5023, -10659, -11164, 14506, 32675
19170, 32748, -7056, -375, -16022, 19404, 24210
19180, 32748, -9304, 10080, -15620, 24159, 13049
19190, 32748, -8682, 19316, -12771, 16821, 3772
19200, 32748, -8232, 22189, -6604, -827, -1570
19210, 14736, -5100, 20522, 15708, -6536, -2829
19220, 9963, -4240, 12803, 24789, -11104, -24
19230, 5109, -2891, 7368, 25935, -12956, 1398
19240, 7646, -1615, 7861, 8088, -14132, 2400
19250, 4949, -2451, 10579, -1091, -8710, 1017
19260, 2953, -1369, 11770, -4837, -1788, 644
19270, 4908, 3723, 1626, -1638, 5309, -1283
19280, 2625, 5188, -2333, -3106, 5332, -3288
19290, -1788, 4802, -2138, -6302, 2211, -4353
19300, -4413, 2839, 636, -8604, -3722, -4286
19310, -4584, -263, 2523, -5026, -15303, -2940
19320, -3406, -506, 857, -2196, -19652, -2934
19330, -1689, -462, -854, 184, -23724, -3682
19340, -1576, -174, -1010, 709, -23968, -4384
19350, -1595, -51, -680, 1031, -23918, -5443
19360, -1080, -2449, 833, 1662, -22701, -7955
19370, -1597, -3449, -495, 7754, -19881, -8742
19380, -793, -2272, -4635, 12954, -16038, -8421
19390, 3738, 488, -10523, 15856, -9729, -6464
19400, 12250, 4209, -17942, 7259, 16779, -3722
19410, 25608, 7463, -22554, -523, 30337, -3412
19420, 32748, 17731, -31136, -8355, 32766, -5520
19430, 32748, 32185, -940, -18166, 28414, -21105
19440, 32748, 12183, 32764, -13283, 6248, -21889
19450, 32748, 12298, 9598, 25088, 20532, -27399
19460, 28815, 14743, -7682, 32766, 31256, -25432
19470, 21561, 14437, -5647, 27506, 31022, -21071
19480, 23090, 11646, 81, 14403, 32396, -15866
19490, 21864, 10959, 4402, 5798, 30997, -11934
19500, 14786, 15303, 5495, 2434, 15234, -6783
19510, 13375, 17641, 2689, 2332, 4962, -4478
19520, 6335, 17523, 51, -66, -4928, -4202
19530, -2441, 12293, 183, -1244, -6367, -6999
19540, -1669, -1077, 4829, -9542, -2401, 336
19550, -3653, -1286, 2464, -10361, -2936, 1234
19560, -8719, -2422, -2846, -11019, -15000, 3357
19570, -6918, -3590, -3752, -10575, -24778, 6181
19580, -4115, -4284, -4522, -9667, -31201, 9278
19590, 278, -4124, -4750, -8790, -32755, 11205
19600, 1865, -4052, -3795, -8459, -31181, 11632
19610, 2993, -4159, -2386, -8729, -26319, 10965
19620, 3576, -3836, 165, -8471, -20862, 9921
19630, 22228, -1486, 10309, -4557, -10178, 6491
19640, 20416, 589, 10971, 1091, 5206, -260
19650, -105, 3703, -4748, 6993, 19526, -7807
19660, -10016, 9651, -19494, -6522, 2537, -4232
19670, 3980, 10781, -17464, -18144, -13491, 1193
19680, 23216, 11271, -8662, -22799, -19087, 5798
19690, 32748, 19054, -11095, -13654, -8860, 12634
19700, 32748, 25087, -27357, -12379, -8605, 17436
19710, 32748, 19074, -15612, -17454, -12164, 14543
19720, 32748, 15465, -9700, -12463, -9141, 17096
19730, 32748, 11512, -9704, -6039, -1930, 17855
19740, 32748, 9659, -8693, -6349, 2506, 17613
19750, 32748, 3429, 378, -8516, 8271, 18545
19760, 32748, 357, 11974, -11479, 22754, 13922
19770, 32748, -1986, 22160, -8733, 19644, 6810
19780, 32335, -3476, 24001, -2253, 5828, 2754
19790, 14892, -4219, 20548, 14984, -5378, 977
19800, 12972, -2229, 13034, 18199, -9467, 1120
19810, 9812, -2229, 10270, 11848, -7655, 140
19820, 6248, -5750, 12619, -3032, 1065, 307
19830, 5814, -3320, 9333, -3015, 2654, 347
19840, 6058, 752, 5047, -969, 4049, -399
19850, 4778, 3859, -110, 579, 4324, -2514
19860, -1315, 6072, -4368, -4014, -4189, -7419
19870, -4139, 4566, -1231, -7249, -11644, -7784
19880, -4437, 2663, 2228, -7276, -18060, -6645
19890, -2720, -10, 1502, -623, -22892, -5566
19900, -1524, -656, 101, 1581, -22629, -5902
19910, -676, -870, -396, 2454, -21263, -6564
19920, -619, -864, 10, 2813, -17683, -9292
19930, -632, -1689, 1054, 4285, -16322, -10946
19940, -891, -3299, 1459, 6643, -14848, -12534
19950, -2213, -4278, 511, 11181, -13245, -13287
19960, 4201, 340, -11368, 20668, -8761, -9319
19970, 9811, 4270, -17879, 17252, -143, -6887
19980, 21789, 12785, -23615, -5858, 26456, 949
19990, 32743, 14995, -24917, -19368, 32606, 2161
20000, 32748, 14645, -13809, -28362, 32571, -7615
20010, 32748, 25296, 5215, -21293, 25755, -22565
20020, 32748, 22625, 8112, 28002, 11498, -23085
20030, 32748, 19416, -8770, 32766, 28602, -24608
20040, 23857, 16278, -10083, 30725, 32710, -23093
20050, 22300, 8152, 2910, 9928, 32705, -15075
20060, 24365, 9537, 4355, 8261, 30463, -12520
20070, 22349, 12922, 4147, 8193, 26075, -11682
20080, 17286, 15068, 4990, 7271, 22369, -10614
20090, 8110, 19040, 902, 6443, 9287, -8223
20100, 4498, 18619, 427, 4155, 2519, -6436
20110, 2976, 16516, 791, 1138, -2437, -3908
20120, 1720, 11818, 3261, -3635, -6890, 2150
20130, 381, 9430, 4445, -4957, -6813, 2996
20140, -1406, 6937, 4750, -5828, -6407, 2220
20150, -3827, 2821, 3163, -6638, -6024, 882
20160, -4756, 817, 1883, -8764, -7376, -557
20170, -6399, -566, -217, -9659, -10289, 752
20180, -6890, -1706, -2081, -10583, -15517, 2815
20190, -4546, -3622, -3102, -10956, -27060, 8336
20200, -2708, -4154, -2999, -10221, -29967, 10689
20210, 1485, -4165, -1953, -7868, -29408, 12417
20220, 4084, -3598, -1335, -6380, -26665, 11506
20230, 8712, -2224, 909, -4825, -22022, 9251
20240, 20176, 609, 10287, 4303, 4859, -4692
20250, -2314, 3854, -6749, 10145, 20282, -12579
20260, -13242, 7589, -17988, 3908, 16749, -11258
20270, -14516, 10322, -22227, -10291, -1392, -7007
20280, 19995, 13247, -14535, -32362, -32352, 4441
20290, 30438, 17963, -11198, -29775, -24489, 10962
20300, 32748, 30370, -17215, -17147, -11327, 19926
20310, 32748, 24687, -22901, -8580, -3934, 25210
20320, 32748, 16887, -17707, -9717, 4125, 27596
20330, 32748, 8866, -11131, -11394, 14542, 30321
20340, 32748, 1781, -6418, -12345, 18280, 29908
20350, 32748, -4533, 4565, -8774, 17258, 16411
20360, 32748, -5613, 15535, -5624, 12777, 7360
20370, 31230, -5291, 21529, 1019, 2494, 1162
20380, 22398, -3642, 15512, 20744, -7199, 1667
20390, 11649, -2916, 13824, 25992, -9252, 1077
20400, 6959, -977, 11408, 23510, -15767, 1129
20410, 7211, 899, 7985, -1299, 8830, 814
20420, 6657, 3826, 738, 492, 12242, -1116
20430, -11, 5255, -4768, -4409, 6546, -5423
20440, -3335, 3284, -2822, -7304, -2519, -6197
20450, -4195, 1060, 1352, -6814, -11541, -5044
20460, -3013, 35, 728, 1195, -23882, -4209
20470, -2206, -249, -6, 3629, -26981, -4712
20480, -1409, -557, -107, 4928, -28428, -5659
20490, -1020, -430, -342, 5650, -28447, -7019
20500, -546, -332, -121, 6717, -25806, -10014
20510, -623, -360, -860, 7952, -23113, -11604
20520, -1441, -1133, -1972, 9238, -18972, -12767
20530, 819, -489, -9034, 10457, -4625, -10447
20540, 1258, 2685, -14243, 8939, 6419, -7118
20550, 4794, 5902, -17957, 4010, 18587, -2411
20560, 6839, 6877, -19235, -4242, 30687, 1941
20570, 32748, 22966, -26484, -18824, 32766, 7940
20580, 32748, 32748, -12233, -25129, 32751, 838
20590, 32748, 32098, 10726, -23991, 20246, -9608
20600, 32748, 7031, 23164, 25834, 5765, -14368
20610, 32732, 8680, 5372, 32765, 24991, -15416
20620, 24677, 10655, -2091, 32766, 27448, -15922
20630, 20654, 13970, -405, 26943, 20782, -14524
20640, 27767, 12262, 4346, 15462, 15654, -12422
20650, 25389, 13718, 5362, 7939, 14215, -11471
20660, 14314, 16861, 2930, 2001, 7774, -9879
20670, 10513, 16206, 918, -381, 2976, -9121
20680, 5993, 13563, 1240, -2989, 528, -8531
20690, -1100, 9643, 1625, -3990, -3116, -10008
20700, -4316, 7322, 1877, -4442, -4005, -11210
20710, -5314, 3608, 2036, -6147, -2811, -9274
20720, -7159, -1191, 1228, -10525, 605, -2666
20730, -8486, -2450, 331, -11592, -3000, -782
20740, -8514, -3049, -733, -11586, -10081, 994
20750, -5195, -3990, -1256, -9770, -25140, 6245
20760, -2461, -3995, -1970, -7950, -30089, 8686
20770, -231, -3652, -3303, -6448, -32348, 10198
20780, 1150, -3629, -3798, -6163, -31707, 10842
20790, 2705, -4240, -2449, -6980, -25422, 10469
20800, 3950, -3663, -1174, -6490, -21158, 9396
20810, 7408, -1903, 1093, -5401, -15820, 7598
20820, 8061, 2450, 611, -870, 8610, -3294
20830, -3722, 4339, -8809, -1066, 16762, -7390
20840, -7295, 6871, -14431, -7045, 11195, -6733
20850, 20774, 17224, -14210, -20936, -13235, -2330
20860, 32748, 27238, -14201, -18921, -5448, 6140
20870, 32748, 32748, -19678, -10483, 3534, 17871
20880, 32748, 11220, -17274, -6536, -5289, 20507
20890, 32748, 10821, -17536, -3308, 67, 27136
20900, 32748, 10741, -15288, -5300, 7225, 28744
20910, 32748, 2168, -2914, -12794, 12133, 19910
20920, 32748, 2224, 2148, -9710, 11225, 13847
20930, 32748, 1101, 14018, -5025, 8242, 8790
20940, 32748, 1381, 17057, 3817, 1871, 4255
20950, 29488, 1912, 13376, 19816, -8330, 1314
20960, 20029, 2163, 16163, 20513, -7698, 1265
20970, 14178, 2046, 12769, 16841, -12890, -325
20980, 6748, -1860, 16849, -5464, -10603, -3424
20990, 4254, -5740, 18758, -12220, -5494, -4147
21000, 2125, -6241, 16968, -11229, -536, -2815
21010, 2095, -139, 7901, -5761, 8100, 1395
21020, 1195, 2629, 800, 3729, 8154, 71
21030, -711, 4194, -3691, 3270, 3592, -2042
21040, -2252, 4192, -5288, -169, -4750, -3609
21050, -1579, 591, -1097, -5185, -19636, -3461
21060, -1690, -652, -110, -4071, -22309, -3023
21070, -1018, -1163, 635, -403, -23088, -3514
21080, -779, -921, 520, 844, -22533, -4682
21090, -718, -936, 473, 1635, -21425, -5908
21100, -45, -1859, 1152, 3674, -18198, -8489
21110, 64, -3198, 1639, 6184, -15713, -10331
21120, -986, -4031, 1255, 10618, -12421, -12198
21130, -2559, -2961, -1016, 16472, -8693, -12903
21140, 5520, 3704, -14664, 21084, 3655, -7785
21150, 9651, 5219, -18837, 15583, 14873, -5863
21160, 14892, 8459, -22026, 7172, 26212, -5320
21170, 32748, 32748, -32748, -9110, 32766, -4104
21180, 32748, 32748, -23003, -18550, 31746, -14388
21190, 32748, 32748, 4208, -19292, 12174, -11909
21200, 32748, 4334, 20787, -722, 22935, -21559
21210, 29551, 8215, 1262, 32766, 32764, -25316
21220, 23940, 12563, -4345, 32764, 32765, -25747
21230, 24836, 14272, -1027, 28188, 32766, -23125
21240, 18589, 13471, 5009, 1356, 24467, -11918
21250, 13385, 16776, 1842, -717, 13233, -8376
21260, 8579, 17992, -1567, -529, 2799, -5907
21270, 7034, 17588, -5132, -912, -9329, -553
21280, 5450, 15569, -4034, -2570, -8384, 316
21290, -5182, 2073, 8234, -5376, 3598, -3747
21300, -7937, -2285, 4137, -6233, 2498, -2577
21310, -10630, -3740, 1172, -7677, -3705, -1306
21320, -10738, -4665, -2059, -8710, -14242, 786
21330, -5157, -5816, -4347, -9817, -30407, 8076
21340, -2505, -5398, -4984, -10462, -32680, 10565
21350, -142, -5061, -4091, -11109, -32766, 11762
21360, 2658, -4727, -2152, -10993, -32213, 11983
21370, 7851, 324, 2196, -8221, -23272, 8933
21380, 29152, 1184, 18301, -6652, -16288, 6308
21390, 30588, 5028, 16279, 1454, 2385, -2583
21400, -15729, 6084, -14180, 4081, 20518, -11885
21410, -20756, 4539, -19932, -6540, 853, -6357
21420, -10371, 2149, -19426, -17009, -24510, 2149
21430, 14900, 4094, -16263, -21043, -32734, 9702
21440, 32748, 23086, -26625, -4089, -21619, 12925
21450, 32748, 31777, -32148, 4825, -3019, 10241
21460, 32748, 31723, -32748, 3508, 12243, 19961
21470, 32748, 8193, -10163, -15572, 7363, 29158
21480, 32748, 3213, -5495, -11300, 3954, 25054
21490, 32748, 3507, -5923, -3275, 6717, 21188
21500, 32748, 6266, -1535, -1474, 19433, 18082
21510, 32748, 4748, 14999, -4980, 23999, 12950
21520, 32688, 4496, 21299, -3239, 14833, 6799
21530, 18107, 10972, 22281, -2548, -5399, 1468
21540, 14495, 4951, 24927, -12198, -6169, -511
21550, 10828, -5275, 27136, -19450, -3413, -1979
21560, 6748, -13616, 23255, -8501, 1568, 902
21570, 6939, -10543, 14695, 3716, 2315, 2519
21580, 6309, -4082, 5035, 13529, 1612, 1326
21590, 4101, 5820, -8428, 13442, -2350, -3101
21600, 1103, 6903, -11511, 6576, -5973, -5124
21610, -2597, 4610, -8527, -1896, -10423, -5636
21620, -4895, 1388, -2926, -7301, -14012, -4014
21630, -6592, -1462, 1926, -4722, -18218, -552
21640, -5833, -1587, 1632, -1145, -19659, 344
21650, -4405, -1415, 1001, 1709, -20696, 814
21660, -2253, -749, 381, 4583, -21472, -315
21670, -1485, -634, 370, 5241, -21098, -1839
21680, -173, -1202, 152, 6102, -19394, -3412
21690, -189, -2517, 360, 8084, -15229, -4431
21700, 4509, -1804, -6417, 15564, -3273, -3997
21710, 6413, 808, -10534, 16457, 5567, -4080
21720, 29655, 6979, -20275, 7549, 26340, -5144
21730, 32748, 12245, -20577, 996, 32516, -8613
21740, 32748, 23820, -23526, -2852, 32766, -13261
21750, 32748, 23461, -11946, -19736, -9889, -8570
21760, 32748, 19464, 301, -17920, -21311, -8502
21770, 32748, 16726, 21328, -4321, -3278, -15259
21780, 32748, 8041, 26251, 19404, 22595, -22390
21790, 22974, 11073, 1710, 32766, 32764, -21661
21800, 17835, 11698, -844, 32698, 31349, -22314
21810, 19112, 11386, -1750, 27471, 26204, -19569
21820, 16530, 5217, 7438, -744, 20184, -10256
21830, 11254, 5040, 8343, -4055, 11432, -8688
21840, 8848, 8250, 4811, -1582, -198, -8345
21850, 6052, 9407, 647, 785, -7412, -7777
21860, -102, 8070, -534, 607, -11855, -5382
21870, -1039, 7579, 152, 44, -9890, -2748
21880, -279, 5267, 2256, -1396, -6706, -513
21890, -4730, 2782, 304, -5581, -1723, 1278
21900, -7904, 1938, -2695, -7815, -5812, 2092
21910, -8317, 203, -3454, -10053, -14469, 4365
21920, 1400, -2092, -3333, -11266, -22233, 10209
21930, 2446, -2572, -2628, -10606, -23861, 10244
21940, 1855, -3050, -1666, -8910, -20404, 9810
21950, 2583, -2934, 1733, -6188, -13763, 7992
21960, 3033, -1995, 4993, -4322, -9919, 6045
21970, 4372, -955, 7351, -564, -6825, 3317
21980, 4620, 900, 3709, 8805, 3529, -3404
21990, -2473, 2882, -5347, 10031, 9367, -4684
22000, -7283, 4997, -12290, 4436, 6394, -3722
22010, -5333, 6307, -16229, -5503, -4963, -2393
22020, 23021, 12079, -15512, -20422, -16976, -933
22030, 32026, 17925, -20023, -17272, -9895, 385
22040, 32748, 31930, -28407, -7804, -7290, 4403
22050, 32748, 18712, -25999, -2756, -3216, 19731
22060, 32748, 12763, -17808, -2962, -2042, 29284
22070, 32748, 7511, -11953, -3376, 2984, 28533
22080, 32748, 5585, -9280, -2145, 6264, 25474
22090, 32748, 7289, -4126, -748, 6123, 21317
22100, 32748, 5315, 8215, -1386, 11900, 15100
22110, 32748, 3474, 22278, 2319, 15382, 5657
22120, 28411, -2487, 21397, 17470, -3157, 1711
22130, 18748, -889, 18923, 19466, -12925, 694
22140, 14256, 589, 16403, 11109, -18319, -1501
22150, 8998, -3192, 20016, -6027, -15194, -2982
22160, 6313, 1437, 2860, 7563, 18977, 3138
22170, 4616, 4766, -5335, 9602, 15397, -573
22180, -482, 7785, -11369, -2042, -4757, -7502
22190, -2284, 4945, -6201, -9110, -16098, -7683
22200, -2200, 2041, -507, -10607, -25207, -6476
22210, -1392, -67, 1154, -2024, -32588, -6200
22220, -1153, -403, 1410, 1885, -32371, -7157
22230, -350, -451, 975, 4679, -30374, -8407
22240, 371, -491, 391, 6265, -27280, -10140
22250, 389, -1123, 576, 6455, -19423, -13905
22260, -639, -2107, 1114, 6917, -14599, -15250
22270, -1719, -2889, 775, 8783, -9952, -15798
22280, -1449, -517, -4723, 15125, -2409, -12264
22290, 3531, 2146, -9459, 16289, 4049, -8090
22300, 7822, 4131, -14076, 13718, 14454, -5064
22310, 25985, 15918, -21668, 1559, 32526, 1087
22320, 32748, 28309, -29709, -5350, 32766, 5774
22330, 32748, 32748, -8253, -13049, 14672, -12198
22340, 32748, 30480, 3676, 2326, -13109, -14835
22350, 32748, 16535, 11455, 23356, -4838, -19608
22360, 22738, 13392, -4798, 32766, 32756, -22197
22370, 23508, 16056, -4788, 31732, 32765, -20182
22380, 24183, 17424, 260, 21476, 32766, -16868
22390, 14684, 16370, 8575, 2026, 31428, -7337
22400, 10090, 16461, 6054, 754, 20857, -4241
22410, 6362, 15154, 3029, -303, 7360, -2919
22420, 2682, 12630, 34, -5808, -7330, -2422
22430, 1113, 9135, 1877, -8517, -6806, -2264
22440, -2702, 5916, 4421, -9452, -4125, -3285
22450, -5199, 3440, 6121, -9867, -2056, -3876
22460, -4216, 307, 3939, -12356, -3783, -2295
22470, -5775, 370, 623, -13004, -6721, -1525
22480, -7880, 47, -2752, -13379, -12584, -487
22490, -6490, -2934, -4177, -12813, -27394, 5835
22500, -4087, -3603, -5302, -11762, -32022, 9574
22510, -1669, -4061, -5692, -11142, -32766, 12248
22520, 2622, -4842, -4397, -10528, -32766, 13772
22530, 4104, -4654, -2889, -8883, -28346, 13565
22540, 5464, -3210, -1351, -7754, -22130, 11909
22550, 7789, -2023, 1585, -6460, -15725, 9311
22560, 23528, 449, 13969, 1394, 9612, 292
22570, 1706, 3800, 254, 9080, 28369, -7293
22580, -12017, 6565, -12500, 6936, 27747, -7126
22590, -14171, 8208, -19892, -5068, 10501, -3407
22600, 12349, 3924, -13418, -27824, -26357, 4377
22610, 28714, 12313, -16606, -23606, -21739, 10997
22620, 32748, 32491, -26331, -11872, 1909, 27115
22630, 32748, 20640, -14530, -11380, 2310, 20119
22640, 32748, 18718, -13944, -5880, 7284, 20382
22650, 32748, 3862, -1915, -7402, 10042, 20157
22660, 32748, -2011, 2717, -4312, 8062, 15569
22670, 32748, -3691, 11532, -41, 6386, 7865
22680, 32748, -1292, 14817, 6530, 2858, 2095
22690, 24866, -1363, 14117, 17223, -5562, 1224
22700, 20376, -944, 14498, 17198, -7280, 1867
22710, 16504, 3970, 15322, 11203, -9438, 763
22720, 5378, -450, 25729, -13241, -2144, -2439
22730, 2776, -5190, 27737, -15974, 2570, -1596
22740, 3588, -6501, 24193, -9617, 6382, -48
22750, 5124, -3257, 15001, -34, 10497, 195
22760, 5770, 4483, -4149, 7509, 9464, -4235
22770, 1861, 5930, -9476, 3874, 2571, -6776
22780, -1833, 4865, -9583, -2116, -8015, -7631
22790, -2425, -1125, -751, -6647, -19576, -4940
22800, -2434, -1520, 1071, -2177, -32563, -5433
22810, -3011, -1869, 1726, 1853, -32766, -7333
22820, -1271, -1124, 361, 7567, -32766, -10545
22830, -619, 40, -1047, 9087, -32590, -12055
22840, -1154, 571, -1226, 8757, -29399, -13643
22850, -2448, 433, -2974, 6615, -17141, -14198
22860, -3720, -968, -3267, 5721, -10478, -12763
22870, -4132, -1973, -5075, 5931, -3815, -9812
22880, 937, 932, -14318, 6667, 2694, -6112
22890, 4016, 4025, -18953, 1702, 23225, 2151
22900, 6164, 5883, -20920, -5432, 32078, 6476
22910, 11422, 7912, -18239, -12031, 32766, 10784
22920, 32748, 26265, -21023, -14780, 32766, 2685
22930, 32748, 32748, -7432, -13819, 31960, -12483
22940, 32748, 31181, 1175, -8608, 6701, -8515
22950, 32748, 22587, 4173, 905, -25890, -3222
22960, 32748, -6033, 30749, 30377, 12036, -14304
22970, 32748, 330, 12779, 32766, 32183, -18753
22980, 25908, 12223, -526, 32766, 32765, -20641
22990, 24453, 20496, 3321, 25646, 24643, -16590
23000, 19832, 19161, 7407, 9506, 18743, -14561
23010, 14082, 21502, 3195, 2080, 11286, -13551
23020, 9502, 22552, 233, -1387, 5195, -11282
23030, 2625, 15042, -381, -6975, -931, -3973
23040, -1568, 1295, 4202, -5952, -4469, -1923
23050, -3556, -91, 2582, -9584, -1518, -1972
23060, -4684, -614, 1047, -11986, -4041, -1143
23070, -4931, -1147, -839, -13494, -9259, 479
23080, -2560, -3767, -1850, -13616, -19409, 6127
23090, -1074, -4032, -2729, -12286, -22861, 8630
23100, -95, -4295, -2782, -10802, -25176, 10048
23110, 3085, -3428, -1638, -8192, -23315, 10559
23120, 4332, -1934, 117, -7013, -18964, 8894
23130, 5206, -405, 1005, -5491, -13534, 6314
23140, 11369, 688, 8126, -4547, -7021, 371
23150, 8996, 1958, 5553, 237, 9102, -4055
23160, -4776, 5055, -8080, 1583, 13886, -7434
23170, -7511, 5840, -12634, -4959, 7110, -5410
23180, -3068, 6863, -13007, -13596, -5108, -1423
23190, 26083, 15706, -8533, -17201, -17721, 2618
23200, 32748, 29267, -11583, -8926, -8197, 5574
23210, 32748, 32748, -26653, 384, -2927, 12995
23220, 32748, 8305, -23340, -7068, -24569, 26305
23230, 32748, 9010, -18219, -4187, -9834, 27207
23240, 32630, 5987, -10148, -4434, 7261, 19374
23250, 30783, 1082, -720, -2057, 8294, 16725
23260, 32748, 1965, 657, 1414, 5198, 15872
23270, 32748, 2510, 8639, 3737, 5394, 13130
23280, 32748, 4106, 13775, 12453, -1001, 4745
23290, 27230, 5568, 10103, 13775, -5756, 1528
23300, 19180, 6301, 14348, 9071, -7937, 570
23310, 10720, 4857, 18473, -9157, -4881, -2026
23320, 8197, -2244, 20316, -17693, 1391, -1723
23330, 7425, -6468, 18731, -18281, 5472, -739
23340, 5569, -5922, 14765, -12679, 7052, 364
23350, 3031, 790, 2389, 251, 5211, -690
23360, 1947, 3425, -3185, 2141, 2688, -2395
23370, 191, 4827, -6087, 741, -1597, -3596
23380, -3352, 2005, -23, -4193, -12427, -2775
23390, -3550, -343, 4046, -2862, -16677, -2127
23400, -3459, -1446, 4638, 996, -19770, -2714
23410, -1521, -1675, 1006, 5301, -22306, -5448
23420, -158, -1931, 676, 4795, -21053, -6917
23430, -111, -2055, 999, 4529, -17799, -8548
23440, -594, -2087, 1337, 4972, -14135, -10051
23450, -1387, -2190, 243, 8639, -7847, -11695
23460, -2761, -2639, -1137, 11402, -5335, -11435
23470, -2675, -2363, -4394, 14129, -3314, -9562
23480, 6976, 2196, -16092, 12847, 4745, -4935
23490, 8344, 4876, -17131, 6389, 13804, -3114
23500, 32539, 15572, -23729, -958, 22493, 879
23510, 32748, 23537, -28158, -15953, 32247, -5308
23520, 32748, 32257, -15557, -20590, 24148, -16656
23530, 32748, 32748, -2215, -12650, -1479, -15963
23540, 32748, 6215, 23488, 29266, 12431, -18977
23550, 32748, 10662, 1671, 32766, 32463, -26919
23560, 27482, 15310, -4722, 32765, 32766, -28404
23570, 17895, 13638, 5060, 8926, 31685, -19417
23580, 21120, 13547, 6074, -1856, 22909, -13653
23590, 17147, 16471, 1732, -1820, 13277, -10552
23600, 12322, 18361, -1932, 738, 5482, -7429
23610, 6607, 18995, -5793, 1150, -3820, -797
23620, 4845, 16034, -2950, -1230, -2570, 2044
23630, 3057, 12083, 329, -3134, 850, 3334
23640, -3577, 6129, 7241, -4217, 3223, 550
23650, -4414, 3367, 9061, -4950, 2635, -651
23660, -5010, 1595, 8456, -6017, 1858, -1713
23670, -6329, 723, 5084, -7757, 404, -2332
23680, -10598, -431, -2271, -12127, -11884, -275
23690, -8037, -2604, -2702, -13457, -21669, 3285
23700, -991, -4592, -4406, -11661, -32013, 10164
23710, 1403, -4712, -4812, -9924, -32627, 11247
23720, 3664, -4668, -4009, -8379, -30453, 11374
23730, 4996, -3533, 593, -7151, -25201, 10789
23740, 7021, -1075, 2718, -4627, -13262, 7162
23750, 15458, 986, 8085, -3072, -6741, 4763
23760, 21319, 2279, 14402, 306, 4778, -419
23770, -11136, 5380, -10457, 4233, 20981, -7130
23780, -12327, 4386, -15673, -4979, 8577, -2210
23790, -8023, 4910, -17340, -14956, -8117, 3160
23800, 21536, 7938, -13294, -23346, -27116, 10052
23810, 32748, 18430, -17447, -15450, -15985, 14871
23820, 32748, 32710, -26052, -5605, -887, 19152
23830, 32748, 31772, -26904, -3750, 4075, 20116
23840, 32748, 13328, -11929, -9199, 8452, 27471
23850, 32748, 7211, -5381, -10718, 14072, 24407
23860, 32748, 2597, -1711, -9531, 9797, 21077
23870, 32748, -3405, 16292, -2009, 3504, 10945
23880, 32748, -1685, 18492, 6778, 272, 4810
23890, 32748, 523, 15078, 16048, -1758, 2204
23900, 26782, 4671, 13224, 20533, -3170, 1823
23910, 17585, 9766, 15332, 9228, -8377, 572
23920, 6013, -11562, 24149, -13114, 5303, 549
23930, 4758, -8211, 14762, -900, 7506, 1872
23940, 4877, 880, -1239, 9214, 7855, -1189
23950, 1728, 3798, -6911, 7438, 3686, -3649
23960, -1648, 4037, -8596, 2560, -4497, -5065
23970, -3718, 103, -3757, -4772, -24687, -2750
23980, -3477, -1236, -1831, -3464, -31414, -1669
23990, -3311, -1858, -1262, 13, -32766, -2081
24000, -1714, -558, -2312, 4007, -32766, -3678
24010, -1387, -21, -2286, 9184, -32766, -9329
24020, -2115, 532, -2413, 9886, -32767, -12762
24030, -2716, 1043, -2325, 9600, -32491, -15331
24040, -3978, 335, -3157, 6590, -25533, -15976
24050, -4503, 731, -5145, 5781, -18645, -13194
24060, -463, 1977, -9471, 4696, -9917, -8696
24070, 5584, 6510, -19650, -5707, 21832, -364
24080, 5586, 7002, -21431, -14463, 32385, 3850
24090, 11197, 9555, -19106, -21405, 32765, 7938
24100, 32748, 25355, -20140, -22967, 32766, 9532
24110, 32748, 32748, 2285, -22018, 25761, -10451
24120, 32748, 21673, 22430, -6187, -14267, -10591
24130, 32748, -3327, 32604, 22955, -12962, -12644
24140, 28993, 2802, 2064, 32766, 32764, -17321
24150, 19019, 11933, -5223, 32766, 32758, -17331
24160, 28652, 14942, 11439, 18030, 25539, -9346
24170, 22847, 16840, 15721, 4725, 21914, -6865
24180, 15577, 20239, 12514, 2147, 12345, -7247
24190, 10872, 22158, 11, 2545, 910, -8026
24200, 5202, 17901, -476, -3214, -10109, -8244
24210, 3486, 12764, 1364, -7527, -10456, -6985
24220, 1990, 8958, 2811, -10275, -9146, -5441
24230, 218, 3973, 3005, -12053, -5704, -1776
24240, -712, 3577, 1207, -12395, -4745, -912
24250, -1752, 2432, 356, -13460, -4757, -760
24260, -3297, -410, -144, -16116, -7059, 1437
24270, -4169, -2489, 573, -16114, -10443, 3146
24280, -3935, -3417, 82, -15180, -14768, 5223
24290, -2887, -3634, -1727, -13797, -19727, 7019
24300, -1370, -3439, -3858, -12466, -28321, 8522
24310, 44, -3367, -3443, -12394, -30015, 9148
24320, 1540, -3457, -2133, -11906, -29326, 9238
24330, 11439, -2799, 5345, -7706, -21584, 6768
24340, 31345, -3016, 14284, -1443, -8108, 1057
24350, -9821, 5209, -11761, 9575, 15649, -12588
24360, -12542, 7426, -18472, -472, 14294, -7724
24370, -8416, 6769, -19246, -15606, -282, -2395
24380, 16272, 9151, -15808, -31937, -19937, 6753
24390, 32352, 22933, -18312, -26377, -12092, 17006
24400, 32748, 32748, -20616, -18037, -3797, 28255
24410, 32748, 26518, -10681, -14344, -4721, 25891
24420, 32748, 12245, -9282, -3215, 7872, 25888
24430, 32748, 5889, -4655, -5801, 13247, 24672
24440, 32748, -677, 578, -6796, 11592, 21997
24450, 32748, -7946, 15824, 919, 1303, 9681
24460, 32748, -8039, 20193, 10252, -3120, 5111
24470, 32748, -8561, 20257, 22605, -5264, 3874
24480, 23117, -7412, 10267, 31505, -5981, 4033
24490, 15666, 1590, 5415, 30300, -10531, 4258
24500, 13511, 6064, 8472, 13480, -9759, 1573
24510, 9222, 4749, 15927, -7621, 308, -451
24520, 2246, -6133, 23202, -17072, 17700, 173
24530, 4265, -4849, 16394, -7279, 17821, 2077
24540, 5455, -121, 7077, 1787, 15634, 2150
24550, 4107, 4126, -3098, 5486, 10889, -286
24560, -2713, 5727, -6806, -4642, -8679, -5231
24570, -3571, 2846, -1397, -9381, -19170, -4297
24580, -1685, -572, 936, -3797, -30597, -2305
24590, -1445, -867, 49, 251, -31180, -2981
24600, -1180, -1065, -494, 3035, -29850, -4208
24610, -925, -888, -833, 5252, -27960, -5867
24620, -872, 29, -1792, 8373, -23196, -10793
24630, -1471, 12, -2082, 8874, -20664, -13386
24640, -2121, -1106, -2027, 8925, -18061, -15441
24650, 776, 1447, -10523, 11454, -8892, -13888
24660, 5630, 4717, -17333, 9064, 700, -11244
24670, 6396, 5753, -19676, 2235, 16052, -8953
24680, 20415, 14016, -23746, -5102, 29712, -6700
24690, 32748, 24000, -26627, -12260, 32766, -2117
24700, 32748, 32748, -21439, -12972, 32760, -6752
24710, 32748, 32738, 3940, -12062, 24495, -8175
24720, 32748, 4622, 28647, 29311, 23365, -17818
24730, 29678, 12824, 3413, 32766, 32765, -20355
24740, 20883, 17828, -3206, 32765, 30706, -19355
24750, 24572, 15396, 7760, 11568, 21184, -14280
24760, 22279, 17078, 8647, 1972, 18374, -12729
24770, 16085, 19406, 6474, -5, 14649, -10497
24780, 10483, 20136, 2616, 771, 7706, -7529
24790, -454, 7511, 2101, -6461, -4748, -2423
24800, -2354, 3962, 4607, -8182, -2531, -3026
24810, -4122, -2267, 7186, -11444, 963, -2204
24820, -6050, -1963, 3455, -11729, 1041, -2041
24830, -7518, -1250, -1263, -12207, -2768, -1127
24840, -6057, -2579, -3190, -13370, -10243, 1008
24850, -3225, -4236, -3944, -13820, -21381, 6142
24860, -1811, -4132, -5631, -13124, -24437, 7693
24870, -116, -4549, -5256, -12770, -25851, 8420
24880, 1602, -4902, -1818, -10767, -21165, 8299
24890, 1703, -4417, 2206, -9339, -16474, 7076
24900, 2164, -3394, 5753, -6178, -12552, 5760
24910, 6107, 782, 3449, 1109, -7198, 3286
24920, 4154, 1612, -2722, 892, -1977, 2381
24930, 118, 1824, -8787, -2368, 3444, 2526
24940, 1436, 4935, -14039, -14271, 884, 4548
24950, 11880, 5867, -13316, -19621, -3180, 6398
24960, 26407, 8872, -13532, -20407, 2776, 11783
24970, 32748, 22267, -22184, -16259, 14499, 21830
24980, 32748, 13990, -8239, -22675, -238, 21398
24990, 32748, 8693, -2057, -14655, -2958, 19783
25000, 32748, 5661, -1605, -4395, -2085, 18286
25010, 32748, 2061, 1503, -3031, -3999, 9763
25020, 32748, -1518, 13065, -4811, -2701, 5872
25030, 32748, -2741, 21036, -392, -4800, 3002
25040, 31233, 572, 18753, 20669, -4556, 3119
25050, 25534, 7028, 16423, 24427, -7445, 2066
25060, 22714, 20868, 14376, 12444, -4786, -27
25070, 4910, -8860, 29012, -29217, 10612, -5683
25080, 4993, -15241, 29574, -25460, 8591, -3747
25090, 5128, -14537, 24720, -12926, 7709, -268
25100, 6342, -5446, 9177, 11844, 1574, 96
25110, 5185, 2363, -2986, 17733, -3715, -4240
25120, -23, 4190, -7257, 14635, -9494, -8233
25130, -4833, 4043, -7602, 8491, -18644, -11213
25140, -5321, 2421, -5281, 2639, -29151, -11886
25150, -2910, -599, -1369, 80, -32766, -12016
25160, -1469, -1203, -1203, 2875, -32766, -13312
25170, -1924, -197, -2097, 6328, -32766, -15484
25180, -3742, 1162, -5771, 7319, -31624, -17721
25190, -5140, 359, -4659, 4429, -24970, -16786
25200, -4747, -1418, -3259, 1848, -17050, -14944
25210, -4387, -3476, -2355, 1352, -9733, -13907
25220, -8188, -2575, -5917, 5251, 3552, -11457
25230, -4272, 2043, -12617, 7287, 10705, -5743
25240, 5517, 5846, -16340, -203, 30965, 4358
25250, 8242, 6639, -15875, -4605, 32766, 5194
25260, 17115, 10374, -14161, -5405, 32766, 5131
25270, 32748, 32748, -18988, 2139, 32766, 13398
25280, 32748, 32748, 4146, -2698, 32274, 13757
25290, 32748, 12853, 32764, -2667, 22043, -1167
25300, 32748, 1940, 32764, 24437, 27496, -13199
25310, 21221, 13297, 6106, 32766, 25096, -14370
25320, 18366, 15282, 5061, 31143, 13324, -14633
25330, 23268, 16889, 8642, 18812, 6799, -12946
25340, 23109, 20458, 8524, 6814, 5433, -12516
25350, 9190, 23732, 129, -1222, 1899, -11749
25360, 6217, 19321, -2817, -3811, -3385, -8345
25370, 6546, 14696, -2042, -6462, -6048, -4438
25380, 1778, 9516, -2777, -7936, -4301, -3177
25390, -2335, 5906, -405, -9198, -3119, -3856
25400, -3070, 1642, 1764, -11007, -2291, -3201
25410, -4239, -2964, 3886, -12246, 93, -1986
25420, -5107, -3707, 2631, -10970, -1435, -1967
25430, -5967, -4819, 1349, -9398, -5253, -1329
25440, -5098, -5930, -52, -7469, -10763, 414
25450, -4333, -5419, -5489, -3687, -21247, 4773
25460, -3075, -5306, -6387, -3732, -26446, 6764
25470, 684, -4695, -5510, -6465, -29187, 8876
25480, 1562, -4089, -3689, -8030, -25634, 8970
25490, 1418, -3145, -436, -8839, -20634, 8724
25500, 9437, 502, 5475, -6110, -11465, 7205
25510, 14155, 1733, 5816, -3629, -3048, 3635
25520, 1857, 2858, -3358, -1324, 8622, -1425
25530, -3105, 3497, -10433, -3149, 10256, -3073
25540, 12416, 4978, -9586, -11396, -7054, 737
25550, 28852, 9601, -10007, -8721, -2341, 8267
25560, 32748, 20923, -21724, -2859, 13536, 20342
25570, 32748, 12648, -9520, -15307, 15943, 20059
25580, 32748, 5608, -1387, -16023, 5659, 20893
25590, 32748, 2369, -408, -10099, -2730, 19147
25600, 32748, 1480, -2359, -3584, -9187, 16162
25610, 32748, 3955, -333, 360, -6597, 9514
25620, 32748, 6615, 8395, -1503, 1872, 7325
25630, 32748, 6786, 15019, -1933, 5448, 5444
25640, 22762, 5287, 15283, 533, 2817, 850
25650, 18521, 3138, 21658, -2446, -1944, 1006
25660, 16443, 2143, 26915, -4785, -2918, -11
25670, 8140, -3428, 11257, 6259, 4601, 841
25680, 8158, 397, 4666, 9119, 7082, -336
25690, 2778, 4811, -4407, 6280, 6219, -3812
25700, -175, 3080, -4657, 1649, 772, -4613
25710, -1089, -12, -1966, -1975, -5034, -3993
25720, -2003, -1670, 477, -2320, -8827, -3106
25730, -3748, -1594, 888, 2217, -15978, -3291
25740, -3575, -1250, 346, 4544, -20738, -3643
25750, -2650, -794, -1136, 6103, -24878, -4052
25760, -2251, 107, -2152, 6123, -30505, -6921
25770, -2575, -428, -1330, 5401, -32317, -8459
25780, -2607, -1665, -1091, 6204, -32766, -10026
25790, 2907, 592, -10478, 13726, -29007, -10907
25800, 5955, 4217, -18867, 13643, -16335, -9991
25810, 6402, 3728, -20220, 6582, 1467, -8366
25820, 23619, 12441, -27429, -1671, 29936, -3397
25830, 32748, 23341, -32613, -11860, 32764, -4929
25840, 32748, 32748, -30784, -16704, 32766, -14310
25850, 32748, 32748, -5093, -17937, 29158, -14623
25860, 32748, -13335, 32764, 25364, 24386, -16975
25870, 32748, -2523, 10849, 32766, 32766, -25433
25880, 22357, 12715, -6797, 32766, 32766, -27676
25890, 14457, 13491, 3270, 15255, 27509, -18033
25900, 16603, 14244, 6155, 3919, 20292, -11251
25910, 15184, 17607, 5873, 3228, 13508, -7931
25920, 11520, 22754, 1430, 8287, -3588, -3631
25930, 8351, 21811, -743, 7514, -8230, -1181
25940, 4446, 17107, 123, 4858, -8184, 1511
25950, 348, 8972, 6798, 650, -4778, 1904
25960, -1606, 6303, 8500, -1396, -2319, 510
