timestamp, ax, ay, az, gx, gy, gz
0,-8124,11847,5318,9893,8506,9728
10,-7986,12042,-7550,10159,16147,10834
20,-5316,11819,-4326,5675,14541,11018
30,-3856,10955,-1117,3453,11424,9347
40,-4712,9786,-104,3615,9310,6952
50,-7837,9915,5349,4793,12330,5348
60,-8135,11415,694,6388,24782,7905
70,-5942,13448,-2473,4369,32583,12641
80,-2876,15214,-9003,-1141,32766,16672
90,-5961,20393,-13327,-17797,32347,15381
100,-6576,16064,-6347,-21561,17073,13977
110,-3485,8363,-4771,-18373,-7833,13558
120,-7978,11386,-5338,-13868,-5701,16204
130,-10289,11150,-1845,-12191,-4264,19331
140,-10510,13593,-1883,-9202,-1810,23439
150,-8810,14545,-1982,-7779,5717,27250
160,-10948,11773,-1345,-6583,24431,29830
170,-7871,9289,-9915,-6175,29476,31670
180,-1834,5933,-2134,-11398,5078,30046
190,-599,4828,-6322,-9239,-5076,28572
200,-1700,5120,-9058,-8824,-8428,27764
210,104,4709,-5743,-11420,-7242,28405
220,2468,9249,-3992,-14348,-6679,23905
230,5000,11378,-2438,-14990,-6749,19344
240,8888,12756,922,-15184,-6106,13509
250,10634,8902,1377,-13096,-267,-1286
260,11899,8484,1461,-13099,512,-8619
270,10493,9382,1677,-13565,-407,-16277
280,7497,14874,2463,-14409,-1359,-22996
290,-8472,32748,-5197,-13065,-3814,-11021
300,-4195,32748,-3559,-15440,-10534,6494
310,6360,31736,1232,-18291,-16940,23542
320,24182,9101,2177,-12638,-18390,21004
330,18259,4655,1492,-9146,-19052,6261
340,9060,6429,-3119,-5751,-20826,-5796
350,3370,11964,-3411,-4880,-24614,-10806
360,47,16044,-2328,-5171,-25705,-7291
370,209,14517,-3076,-5301,-23366,-4983
380,177,12657,-3793,-6121,-21468,-4267
390,-200,11829,-4536,-7646,-21077,-4464
400,2158,13838,-2347,-13371,-21281,-3735
410,2672,14773,-2036,-16605,-18477,-3481
420,3335,16159,-3035,-24679,-12542,-2269
430,3734,16603,-959,-29225,-13585,-978
440,2645,16680,2769,-32232,-16700,744
450,6857,15940,22068,-21006,-25707,1474
460,2164,16278,8233,-5094,-28646,-1207
470,-342,16008,17,5633,-31770,-2253
480,191,14354,-1999,13520,-32766,-1796
490,4053,14380,-3843,28755,-31294,3232
500,9123,19532,-8071,29115,-19541,9240
510,15692,27279,-10586,21397,-5306,15611
520,22356,32748,-2578,1170,-1805,16617
530,18781,30763,6166,-3439,-5122,13413
540,10856,24939,7883,-3326,-4971,10639
550,5683,21252,5891,-1326,-4174,9574
560,2315,20280,1788,966,-3392,9486
570,1555,20620,921,622,-2321,8504
580,-31,19884,1396,-17,-916,7073
590,-1240,17775,2150,184,2828,6039
600,-1076,16178,3105,-266,5458,5852
610,-1111,14604,4594,-1466,8377,5293
620,-1959,13494,6380,-3218,11294,4464
630,320,12048,-1221,-4137,-2586,-2762
640,696,12699,-2530,-3853,-9518,-5826
650,160,12905,-3827,-3588,-16584,-8859
660,-942,10312,-1777,-4467,-25032,-12652
670,-1921,9359,-488,-4797,-23333,-12915
680,-2464,9495,184,-5294,-18420,-11693
690,-1967,14152,-440,-6569,-5307,-4258
700,-684,14929,-1085,-6979,-2189,104
710,445,14492,-1252,-7056,-2221,3861
720,2301,14365,-1195,-6621,-3218,7687
730,19180,17330,-1569,-6196,-2149,9728
740,22514,20654,-326,-6952,3357,4280
750,22297,23734,-539,-7352,10971,-1042
760,25653,27279,8967,-5459,13775,-7734
770,21941,28052,13959,-1663,9361,-12600
780,19703,28691,8571,1418,1640,-16405
790,15981,28737,-1695,2414,-1102,-18434
800,12388,29759,-589,1035,2031,-20824
810,8790,30960,1038,-902,430,-22448
820,5681,31146,1098,-1876,-1820,-23692
830,7548,29557,2218,-2887,-5100,-22132
840,10559,29019,2820,-2057,-5677,-19879
850,13018,28464,2123,-854,-5926,-17848
860,14006,24446,-243,-3070,-9871,-15567
870,13075,21421,-3023,-4916,-10734,-15130
880,5690,15594,-1374,-9864,-15796,-13584
890,3440,12745,753,-11301,-16880,-11352
900,2132,9707,2177,-11557,-18159,-8962
910,1497,6948,1239,-10994,-18894,-6326
920,1824,1556,499,-9876,-18662,-496
930,2909,-1015,1609,-8560,-16569,2200
940,3222,-3738,3328,-6294,-13840,4298
950,4233,-8025,3598,1006,-9086,8192
960,3943,-8875,3754,4655,-6914,9662
970,2626,-7892,3944,7568,-4341,10314
980,337,-1758,2098,12033,-30,10129
990,431,1629,714,12793,407,8650
1000,1061,4301,621,11611,-290,6246
1010,1541,7278,1844,8981,-1327,3301
1020,1381,11982,7470,3663,-4909,-756
1030,812,13660,8911,4250,-4782,-2483
1040,5,15611,6777,8260,-1459,-4626
1050,-863,18433,3855,13925,5601,-7315
1060,-894,17853,-6656,20653,17948,-9770
1070,9342,15802,-13353,18547,13969,-6100
1080,20769,20503,-12937,13115,4193,-1709
1090,30876,18490,-3323,-235,-3349,1110
1100,16741,5170,2589,-10597,-5922,-4359
1110,7203,-3638,1150,-12529,-8299,-2464
1120,9501,-3444,241,-5206,-6267,2028
1130,14235,-1751,-1054,1166,221,7101
1140,18426,782,-4463,6962,9142,11176
1150,21584,8443,-3894,12492,12394,16210
1160,21755,13877,-979,13975,8890,18686
1170,22942,18402,802,16427,8311,20702
1180,22435,22735,-968,19601,11195,20995
1190,20288,23154,-5754,23898,17760,19258
1200,17284,23258,-12410,22518,14961,18446
1210,15979,25095,-18381,17828,7077,17729
1220,14595,32748,-22129,1919,-8932,19091
1230,15601,32748,-20116,-5251,-14248,20534
1240,16588,32748,-15140,-9012,-18024,18428
1250,870,32748,-1382,-4579,-5653,7555
1260,-8930,32748,3595,2043,5558,7172
1270,-8899,26764,17659,8743,16232,14058
1280,-1055,17136,32659,18248,15318,21256
1290,-555,23513,3778,-736,-2066,14988
1300,-1173,17323,4881,-10295,-9870,10305
1310,2034,10582,5171,-9472,-8952,8777
1320,489,1516,4044,-5351,-7286,6251
1330,-2299,93,3771,-4311,-6657,5594
1340,-7265,1374,1249,-2723,-906,3630
1350,-8632,2158,-144,-2340,166,1464
1360,-9873,2730,-1176,-2692,-732,-1372
1370,-11319,3440,-857,-3885,-1904,-4912
1380,-15011,5261,5759,-8177,2437,-12044
1390,-11520,5073,7877,-9986,7170,-13477
1400,-3487,5824,7732,-11296,6721,-12572
1410,1962,8259,3691,-10352,7853,-12011
1420,2669,11129,856,-8397,10796,-11630
1430,3036,14619,-1469,-6682,12210,-11861
1440,7123,22579,-3473,-6135,7431,-14092
1450,10231,26534,-3811,-6374,3664,-16784
1460,11700,30441,-3927,-6261,542,-21130
1470,11363,32748,-3706,-6111,-235,-25304
1480,18971,32748,-899,-5743,7778,-22366
1490,30652,32748,3738,837,13533,-15643
1500,32748,32748,-99,14108,11945,-10943
1510,32748,32748,-26047,15887,-5761,-22944
1520,21964,32748,-18330,2080,-10258,-27895
1530,17465,32748,-2946,-8996,-13706,-26934
1540,13309,14286,-2586,-5802,-13755,-8874
1550,7094,9749,-2488,-9500,-18375,-3211
1560,4677,4605,524,-11640,-18495,-560
1570,3564,-1044,1291,-12172,-18250,2306
1580,5786,-8359,3577,-12428,-21314,8493
1590,5584,-10635,4971,-11368,-20160,10763
1600,5723,-11039,4522,-8856,-16452,12910
1610,5378,-10075,2725,-5714,-12309,14208
1620,4267,-8421,645,-794,-4623,13424
1630,4030,-8730,469,1096,-118,12152
1640,3966,-8380,286,3176,4021,10681
1650,5299,-9214,1866,5026,5702,7860
1660,8043,-6220,5317,7948,3816,5976
1670,3791,1205,8658,10567,404,2103
1680,2750,9477,10700,14085,-1953,-311
1690,1155,27367,1289,19038,742,-6627
1700,-2990,29442,-11653,21684,-1770,-11079
1710,-4119,26678,-21995,23657,-3904,-13001
1720,-3635,9057,-12091,14073,-6342,-10225
1730,-4025,1200,-6138,8825,-5303,-6560
1740,-2516,-2524,-2676,4200,-2185,-1778
1750,17482,5244,-78,-12752,14697,8603
1760,28608,21208,1660,-12629,4425,7698
1770,32748,27752,3294,-1384,-2939,11229
1780,26365,5945,-4293,14246,2971,663
1790,13982,667,-4729,12711,5167,-525
1800,14615,804,-3225,9791,4324,7235
1810,23303,6508,-721,7536,3733,20546
1820,29564,11355,-1139,7494,5681,24870
1830,32748,16403,-3115,8313,6876,26351
1840,32733,28105,-13549,10682,2180,24122
1850,31719,32748,-23642,8819,-6064,22162
1860,28982,32748,-32748,1640,-17954,20144
1870,26838,32748,-32282,-11998,-29289,18690
1880,9526,32748,-2193,-13089,-19814,6501
1890,-10795,32748,22175,-3261,-365,1022
1900,-8606,28363,32253,12480,27046,9172
1910,2960,18541,9059,31622,27635,19666
1920,-4879,20209,-2369,10714,7599,14108
1930,-4671,15449,5608,-12261,-10636,10040
1940,-2063,11519,5760,-11917,-12589,7799
1950,-3272,2432,2771,-2931,-2723,4222
1960,-4663,-860,1688,-2018,-3158,3619
1970,-5819,-2794,942,-2035,-4035,3632
1980,-8090,-1239,-628,-594,-3300,2322
1990,-8798,783,-901,-310,-3084,466
2000,-10283,4193,1060,-2106,-384,-4581
2010,-10732,5697,3144,-3618,2061,-6808
2020,-6861,7186,5829,-4726,3257,-7305
2030,-2878,7346,6222,-5037,3637,-7741
2040,531,4470,5279,-6031,6193,-10430
2050,1073,4777,3157,-6386,8406,-11683
2060,612,6933,259,-6171,8807,-13781
2070,407,10509,-2119,-6178,7921,-16722
2080,1555,20380,-2469,-7507,6066,-23414
2090,2285,26462,-945,-7989,5613,-25705
2100,4750,32562,1684,-7475,6331,-26332
2110,26417,32748,15791,-851,10923,-26227
2120,32748,32748,13490,7146,14387,-27175
2130,32748,32748,7952,17640,18032,-20697
2140,32748,32748,-12692,32508,11925,-3115
2150,32748,30546,-16591,26459,6242,-11886
2160,21619,30557,-12448,16101,3223,-24280
2170,14004,32748,-342,10114,-2592,-25793
2180,12880,30228,548,5423,-6046,-16130
2190,11616,23674,-1727,3235,-7096,-11885
2200,11057,20085,-4381,384,-10182,-7383
2210,5594,14054,-4782,-9556,-13515,-1634
2220,3181,9937,-2727,-13790,-14652,905
2230,3467,608,-3781,-15893,-14748,5234
2240,5279,-4550,-3880,-16907,-15884,7070
2250,6923,-9399,-3288,-18172,-15958,8889
2260,6644,-13152,-1351,-18764,-14890,10558
2270,3993,-15725,-5,-14396,-15855,11808
2280,2180,-14960,-219,-11063,-15558,12713
2290,2029,-12901,-340,-7639,-13425,13490
2300,2514,-11388,-464,1609,-6485,12695
2310,3340,-11184,-462,4711,-2044,12343
2320,6100,-10949,2173,5317,1638,12522
2330,11322,9113,24235,-424,8343,6485
2340,5685,20742,25127,-9163,4389,644
2350,-1669,32641,14431,-5428,-2028,-6288
2360,-7756,32748,-4999,8524,-8167,-13141
2370,-2594,18979,-24058,19771,-9094,-15795
2380,-3531,9543,-16820,13279,-140,-16184
2390,-4638,2642,-11865,7622,4931,-14473
2400,14673,-8161,29477,-5254,11722,-5359
2410,32001,-4879,32745,-16853,17919,3978
2420,15687,9149,-8332,1263,-22574,4528
2430,31416,18609,-32296,21111,-15816,7515
2440,15087,408,-5359,7200,13357,7749
2450,27886,6962,-6019,14509,7289,23895
2460,32748,12559,-2809,14249,2827,29709
2470,32748,18973,-300,12934,1663,32068
2480,32748,23099,-1643,12629,3232,30058
2490,32748,29459,-15399,11196,3490,19035
2500,32640,32748,-21820,5008,-34,16181
2510,30461,32748,-25017,-4367,-2597,14970
2520,19698,32748,-11575,-22400,-8530,12940
2530,13937,32748,3823,-21765,-11026,12046
2540,-3727,32748,30993,-11202,-3928,10590
2550,-1347,26994,7322,10682,19863,16010
2560,-1530,19866,5959,32344,9084,21983
2570,-5768,13101,4766,23534,3226,18212
2580,-5904,9310,10424,5616,3643,14004
2590,-3867,2748,8057,-20,-4119,9601
2600,-5733,1311,3565,-163,-5997,8816
2610,-9258,770,1613,-1009,-5866,7302
2620,-12095,1021,240,-969,-4257,5287
2630,-12615,4312,-467,7,352,-73
2640,-12392,6090,292,-91,3081,-2868
2650,-12069,7156,2400,-615,5362,-5269
2660,-3052,8408,5498,-686,5295,-6515
2670,-830,6892,3122,-1416,5050,-7894
2680,-129,3601,724,-3727,5259,-10277
2690,-406,3567,482,-9248,6809,-11570
2700,-1356,4981,-440,-10752,7199,-13507
2710,-1326,8203,-2268,-11365,6654,-16166
2720,4102,20012,-3298,-12378,2454,-25211
2730,4992,26377,-3486,-13008,1537,-30261
2740,8089,32748,531,-13963,1359,-32767
2750,21743,32748,17842,-11920,4105,-32766
2760,32748,32748,13972,12488,25906,-27177
2770,32748,32748,3883,27789,30583,-8973
2780,32748,32748,-9778,32761,26402,3888
2790,32748,24100,-20569,32766,11002,-5976
2800,15676,22768,-16650,18544,-3445,-26168
2810,14481,27183,-5494,8082,-7625,-19640
2820,13607,26587,-2503,4662,-7626,-14663
2830,8198,17749,-5979,432,-12333,-7689
2840,7293,14618,-8032,-3806,-16231,-4195
2850,5712,11394,-7954,-9727,-18089,-1505
2860,4243,7386,-5594,-15976,-18401,727
2870,6313,-2336,-3284,-23410,-16820,4554
2880,8251,-7822,-2367,-25057,-16374,6363
2890,10348,-12350,-389,-26153,-14825,7974
2900,10104,-17459,-210,-24259,-13896,9329
2910,5791,-16971,-703,-21510,-13965,8930
2920,2275,-16514,-2058,-16625,-11759,9121
2930,1508,-17049,1236,-10657,-5757,12126
2940,2624,-19405,4950,-9678,-1486,14219
2950,3662,-18614,11390,-8216,4101,15358
2960,-477,575,13713,-3907,7008,7244
2970,2784,10741,13503,6770,-5991,3466
2980,6870,19491,9813,9149,-6168,1328
2990,7789,25417,5022,11138,-3585,-2029
3000,4883,21240,-7724,18374,-1006,-11046
3010,735,14404,-9122,22388,3537,-15506
3020,366,6964,-8754,24680,7675,-17170
3030,19828,7079,-552,18978,10877,-13647
3040,32038,23550,-12683,13487,10259,-7818
3050,32748,31170,-18062,10959,2969,1563
3060,22682,2827,-9606,12075,-4897,4263
3070,9206,-3118,-8989,11664,-2868,-206
3080,7782,-5164,-5788,7869,-302,692
3090,16160,307,-7282,5658,3185,7191
3100,32012,11099,-8252,4156,-1478,25349
3110,32748,14333,-5469,2737,-4130,30212
3120,32748,22143,-8886,4592,3244,26547
3130,32748,26399,-12673,4749,6489,20811
3140,32748,30669,-16135,2790,7546,17000
3150,27954,32748,-25897,-655,1838,12838
3160,22061,32748,-18803,-14350,-4998,10971
3170,13614,32748,-7394,-16581,-11463,8274
3180,4761,32748,3396,-13217,-12645,5955
3190,-15454,22733,28687,19844,28560,14337
3200,-9769,15304,15879,32313,32280,19202
3210,-8157,14522,11012,32534,24951,16551
3220,-10646,12537,4441,-7150,4054,6121
3230,-5968,8175,6958,-14174,-7335,4296
3240,-6216,4504,637,-7277,-4453,2675
3250,-7707,-1395,-1523,-583,-1703,-843
3260,-10141,-2764,128,-411,-1050,-2176
3270,-12582,-1021,782,-1216,1028,-2562
3280,-12138,2904,-959,-2472,1314,-2396
3290,-6850,6261,253,-4620,-5586,-4531
3300,-4675,5953,1657,-4256,-4663,-5678
3310,-2305,5236,2399,-3650,-2456,-6356
3320,-712,4004,3101,-5009,1294,-8458
3330,-896,4553,3017,-6708,2988,-9347
3340,-1059,25061,-6324,-11268,-5149,-28916
3350,-2638,30923,-5498,-12331,-9008,-32422
3360,3178,32748,2685,-12864,-9489,-29275
3370,23542,32748,21422,-9386,-3988,-26199
3380,32748,32748,21307,1026,10871,-26137
3390,32748,32748,10096,15359,21792,-22721
3400,32748,32748,-12270,26594,10395,-10072
3410,32748,24093,-12026,19881,2089,-13910
3420,32748,19443,-13103,16245,6144,-21347
3430,23280,27802,1628,15105,2557,-25269
3440,15656,30913,2726,17410,2244,-22299
3450,13054,27603,3203,16252,2213,-19071
3460,10946,22230,2155,13506,368,-13899
3470,3510,18670,-5902,2154,-9166,-5700
3480,-1303,17934,-6894,-5436,-13283,-2685
3490,-3651,15862,-3702,-11957,-14933,-73
3500,1590,3532,-4116,-16428,-13508,3769
3510,6977,-4547,-4079,-18829,-14170,5536
3520,10807,-11683,-3202,-21090,-14256,7350
3530,11387,-15333,-543,-21819,-14753,10128
3540,7424,-14843,-3142,-18474,-14963,10704
3550,2378,-15657,-3030,-13976,-14920,10792
3560,-1316,-13998,-2203,-6273,-11152,11777
3570,569,-14792,2418,-5032,-7119,13531
3580,6030,-15020,8659,-3461,231,14132
3590,8644,1526,17960,695,7737,4124
3600,4842,11105,17011,1628,2322,-990
3610,1542,19360,10363,3805,277,-2840
3620,-5718,23976,-18465,17237,-4867,-7822
3630,-3734,19061,-23995,19768,-4785,-9213
3640,-3583,13320,-21563,16359,915,-10819
3650,-5183,7581,-15986,10461,4917,-10744
3660,31045,-1456,32764,-637,17800,-1294
3670,25439,12483,14535,14979,27131,-1503
3680,19971,27511,-32018,32443,6643,-6000
3690,32748,22094,-28274,17729,-353,3055
3700,17973,6845,-13111,5271,4955,-609
3710,4380,-2164,-7639,-683,11394,-2042
3720,1311,-4911,-4093,-4381,12526,2405
3730,14581,1077,-1671,-3199,-1009,17654
3740,27421,8648,-2514,1717,-10420,25588
3750,32748,15891,329,5472,-14035,30995
3760,32748,20880,145,8623,-8423,32334
3770,32748,25780,-8469,11788,8065,26663
3780,32748,28024,-13681,9173,10624,21773
3790,28758,32748,-20089,-4029,5854,16875
3800,24794,32748,-16764,-11791,2623,16046
3810,17964,32748,-11256,-17640,952,16660
3820,-5649,32748,31003,-12869,-4480,23031
3830,-663,32748,14400,7920,-3327,28948
3840,5663,27389,1502,19135,-473,28027
3850,-6894,16443,1976,13467,2024,20848
3860,-4284,12139,10011,-5594,-7173,17086
3870,-5472,5962,16288,-3448,-9250,14712
3880,-7524,1638,14001,3946,-5958,12624
3890,-12163,1049,270,6067,487,9409
3900,-13287,1866,-1426,818,1049,6722
3910,-12279,3631,-1437,-2499,1340,3496
3920,-10105,6300,-128,-3152,2768,-4202
3930,-10852,6346,1979,-1432,5081,-7374
3940,-10685,6213,4395,-266,8774,-8029
3950,-2811,6009,6030,252,10239,-7172
3960,1932,2999,3819,-3638,7336,-9769
3970,1538,2616,2271,-7007,7450,-11178
3980,-1153,2670,629,-9825,7882,-13030
3990,-2580,7685,-2968,-12879,7345,-16675
4000,1055,12955,-4431,-13375,6118,-20418
4010,3743,25373,-4888,-14197,2220,-32084
4020,2581,32406,-5545,-14041,496,-32766
4030,1780,32748,-5812,-13936,-1844,-32766
4040,6614,32748,51,-13787,-4535,-32694
4050,32748,32748,21397,4921,12132,-26810
4060,32748,32748,5513,25923,28490,-17291
4070,32748,32748,-5055,32738,29457,-7781
4080,32748,28194,-9767,32766,16954,-12452
4090,20626,18511,-26201,28257,7566,-23724
4100,21013,26747,-17042,14170,-8039,-18527
4110,22765,32679,-6733,4192,-16770,-13792
4120,15764,24024,-607,3976,-9353,-9027
4130,14696,18702,-3989,4666,-11625,-5492
4140,12407,15588,-7066,-472,-14245,-2362
4150,7312,8833,-1821,-15853,-18899,1339
4160,6600,3351,-780,-18832,-16255,3205
4170,7344,-3009,597,-19530,-15065,4827
4180,10345,-9180,2791,-20232,-15186,6638
4190,10730,-15055,3764,-22211,-15591,10068
4200,7874,-14416,2839,-21647,-15367,11286
4210,3822,-13741,660,-19512,-13134,12485
4220,2950,-13332,9868,-8652,5493,15168
4230,6735,-9316,12592,-2721,4983,10815
4240,6496,4487,7147,16151,-3858,-875
4250,11157,12558,3170,22289,-2059,-2419
4260,11273,20183,-3042,23721,2936,-4719
4270,2401,19520,-20616,23151,-572,-10875
4280,918,16125,-21691,20930,-2754,-12270
4290,152,15760,-19536,16761,-3521,-12697
4300,1373,16597,-14933,10943,-2613,-12899
4310,15880,29357,7616,3660,5750,-3987
4320,32748,20326,31036,7916,22199,5934
4330,26885,3943,8906,15348,27957,3569
4340,7968,-3711,-7111,16929,10645,1002
4350,16737,-1083,-10558,9333,-3638,17405
4360,24581,2963,-12398,4632,-7296,25700
4370,30967,6814,-11730,-79,-9140,30678
4380,32748,10614,-11408,-5246,-2879,28182
4390,32748,14512,-13240,-5245,376,23658
4400,32748,19206,-19245,-5544,3071,19498
4410,32748,29575,-28692,-14615,-2016,16725
4420,29991,32748,-28176,-21997,-10421,15933
4430,24893,32748,-17799,-28517,-19340,16145
4440,20679,32748,4819,-22778,-24464,20456
4450,7086,32748,32764,-7240,-17871,18666
4460,7063,25767,32202,23108,19883,21403
4470,958,15390,10874,32714,20446,19013
4480,-5059,18815,-1993,21954,20701,17440
4490,-3468,15429,8018,-3349,4685,14997
4500,-2369,10739,14294,-9049,-7041,13364
4510,-7884,6573,329,1998,-840,10671
4520,-10618,5344,-1639,1391,896,8052
4530,-12609,4476,-1844,592,2296,4490
4540,-16415,5734,-900,260,6067,-3102
4550,-16162,7172,408,-554,7111,-5427
4560,-12150,8335,2796,-1657,6760,-6267
4570,-3018,7815,2147,-2322,5679,-8548
4580,-1225,6897,600,-5193,3246,-9824
4590,-172,5851,-93,-7874,2591,-10666
4600,131,5293,-1068,-9839,3038,-11615
4610,2620,9780,-4200,-11010,3600,-15954
4620,4532,15413,-5531,-11361,2092,-20704
4630,5679,22587,-5610,-11834,-129,-26942
4640,4321,32748,-3369,-13260,-2590,-32766
4650,10472,32748,2751,-14058,-4431,-32766
4660,26365,32748,13040,-13458,-3855,-32699
4670,32748,32748,9596,-5112,10585,-26416
4680,32748,32748,8327,5852,15629,-15004
4690,32748,32748,-10008,26687,23968,-480
4700,32748,11604,-11158,32137,10365,-10419
4710,31755,9719,-14364,29956,5562,-22401
4720,17156,10567,-13059,25031,-4128,-23869
4730,12468,20654,-5319,14204,-10278,-13722
4740,10776,22949,-413,11032,-6919,-12133
4750,11033,17965,-1978,9955,-5383,-9585
4760,9290,9380,-4357,5857,-7795,-5833
4770,7130,5798,-1645,-10517,-13394,-1302
4780,4275,778,1969,-17378,-13436,603
4790,2086,-4900,4109,-21857,-13135,3441
4800,2986,-13907,3129,-24314,-16355,9308
4810,2918,-16106,1999,-23947,-15820,11228
4820,2396,-17514,1460,-23223,-13562,12389
4830,2048,-18879,1890,-21674,-10088,12585
4840,1158,-18785,3878,-15842,-1582,10675
4850,2661,-18479,6332,-12492,-522,9600
4860,5549,-16798,12172,-8558,-2006,7997
4870,5086,1911,11188,8944,-7473,3038
4880,8489,12477,8686,15540,-7820,2078
4890,6998,30081,-10336,17682,-1943,-1109
4900,4167,30296,-18492,18165,-3283,-12397
4910,1299,23814,-22549,17752,-203,-14292
4920,-401,14568,-18015,14119,5200,-12844
4930,-583,-849,-3204,3770,10226,-5757
4940,6363,-7696,20737,-950,15411,-1283
4950,25548,-17579,32764,-10142,18846,3451
4960,18904,16183,-32714,-1799,-15212,2053
4970,32748,28198,-32748,18154,-23966,5051
4980,32748,27101,-32748,11686,-17549,9551
4990,28451,11891,-24050,1994,-2685,6321
5000,7359,5236,-13801,2441,-7844,4804
5010,16762,8288,-13526,5353,-11703,11985
5020,26233,12353,-12489,5839,-7751,17676
5030,30558,14766,-9781,4199,-1909,20643
5040,32748,18330,-5805,1313,3874,24920
5050,32748,19857,-3780,1839,4454,23643
5060,32748,21738,-1371,3497,6139,20787
5070,32748,25335,-1620,5677,10388,18114
5080,29012,32748,-3619,5960,17673,16156
5090,22469,32748,-4600,3731,17492,16041
5100,11629,32748,-719,925,13079,16739
5110,-12505,18816,10373,11999,2793,16549
5120,-14293,13441,13698,10581,3006,14619
5130,-15621,8641,12675,7282,466,11404
5140,-14651,5877,763,-2918,-3731,5154
5150,-12235,5233,-1246,-5262,-4014,3713
5160,-9734,5251,-2545,-5964,-2797,1655
5170,-5155,4862,1131,-7739,6,-3563
5180,-867,4459,4748,-7301,1616,-4879
5190,3349,3612,7222,-6191,2175,-5753
5200,5428,2430,7849,-5922,2171,-6141
5210,5085,182,4705,-7115,7373,-5643
5220,3592,321,1863,-6677,10395,-6190
5230,2332,1459,-773,-5666,11791,-7762
5240,5077,9216,-5707,-4691,8782,-14894
5250,8443,14384,-5709,-5035,5670,-21984
5260,9913,20747,-5207,-4891,4797,-30230
5270,4377,32748,-5862,-3505,7032,-32766
5280,27,32748,-2462,-3610,6072,-32767
5290,14424,32748,12009,-3352,5126,-32744
5300,32748,32748,23330,-419,9754,-31031
5310,32748,32748,11206,11291,12461,-18260
5320,32748,32748,-6507,25244,18013,-6317
5330,32748,8752,-10398,26326,12259,-13092
5340,18951,8646,-14119,23668,3735,-20665
5350,14537,14021,-14464,17067,-7543,-18799
5360,18822,20874,-8773,8862,-12306,-12839
5370,17004,23284,-2633,6266,-9120,-8999
5380,15713,18725,-2404,6624,-7160,-6972
5390,13507,13565,-3011,5616,-7829,-4520
5400,6243,7067,-2188,-3188,-12855,-355
5410,4456,3759,-1245,-8309,-14710,1804
5420,3605,-342,-990,-11771,-15491,4261
5430,3822,-4486,88,-14379,-15258,6822
5440,1180,-10937,2889,-18118,-13134,11525
5450,-401,-11860,3752,-18975,-12649,13091
5460,-1270,-11999,3825,-19365,-11285,14081
5470,639,-11969,4620,-17712,-6057,13698
5480,2051,-12056,5095,-14430,-2679,11518
5490,3090,-9243,5063,-11287,-1488,7770
5500,2951,2250,4907,-3402,-7109,1006
5510,4587,8092,2395,3921,-7298,-751
5520,6388,14274,2149,10494,-3770,-3949
5530,5785,20589,2918,14423,3414,-8818
5540,-3976,23473,-1554,18321,10359,-13916
5550,306,10499,-18323,11395,955,-9700
5560,1283,2942,-11370,4434,-493,-9567
5570,4615,-7353,10204,-3608,5280,-3339
5580,27366,-19388,32764,-11091,5178,2092
5590,14440,5290,-9417,-5986,-20838,3606
5600,31154,27939,-32748,7877,-27756,6889
5610,32748,25464,-31072,7633,-17228,18929
5620,26294,8311,-15994,1445,-11,2548
5630,10484,-353,-7106,1245,6211,-3978
5640,13390,968,-1385,7333,7946,9569
5650,23015,5471,-3431,10010,7214,17485
5660,32743,9429,-3921,10806,4900,22552
5670,32748,16739,-4040,10126,3643,25455
5680,32748,19954,-8427,9017,6603,18722
5690,32748,22959,-11775,6732,11537,15568
5700,32748,26729,-13853,3155,14093,14775
5710,23841,32748,-16806,-6054,11572,12778
5720,18884,32748,-15173,-10483,4497,12590
5730,13834,32748,-10007,-13317,-4920,12823
5740,2663,32748,11403,-10546,-17478,11998
5750,-19349,28824,32764,2399,-9340,13027
5760,-10050,21654,17132,27327,12694,22827
5770,-3462,15820,7968,32766,15015,24845
5780,-6570,13777,4857,22368,17737,15140
5790,-9662,9902,13568,1957,9001,11052
5800,-11107,7322,2943,-4964,-2419,6971
5810,-12908,7102,-3505,-5274,-2171,4493
5820,-13932,6604,-6838,-6440,-2266,1966
5830,-10353,6611,-5175,-7965,-2994,-4050
5840,-10527,5361,-626,-8479,-2768,-6804
5850,-11155,3461,5288,-7741,340,-7806
5860,-772,3081,7215,-2074,6458,-7767
5870,-533,2384,2571,-1729,6110,-9497
5880,-62,2758,-577,-4659,5382,-10388
5890,-498,4096,-2357,-8406,4359,-11510
5900,-797,9547,-4093,-12902,2548,-16494
5910,1758,14451,-3807,-13569,2067,-20523
5920,3661,21876,-4578,-12917,2377,-25537
5930,5584,32748,-7518,-11813,3005,-32424
5940,9964,32748,-3504,-13719,1240,-32766
5950,19576,32748,7783,-13400,381,-32767
5960,32748,32748,28538,-6992,1952,-32766
5970,32748,32748,10731,21379,22812,-22076
5980,32748,32748,-3990,32159,31169,-5073
5990,32748,24743,-11095,32766,18675,-6201
6000,18188,27156,-5028,5721,-12369,-13508
6010,16892,20758,-6528,8895,-9790,-10843
6020,15000,14462,-7533,9820,-9371,-7792
6030,12993,10516,-8090,6563,-10826,-5231
6040,6906,7532,-5427,-6991,-16693,-1504
6050,4414,3628,-904,-13990,-16608,752
6060,3680,-2730,2272,-18530,-16060,3597
6070,7124,-13033,4498,-21729,-19924,11470
6080,5769,-15603,5035,-21252,-19426,14227
6090,2909,-16370,3965,-18851,-16647,15775
6100,738,-15373,2594,-15326,-13563,16890
6110,663,-15758,4543,-11392,-6464,16347
6120,1739,-15990,7770,-9764,-1757,14928
6130,3955,-11539,7963,-7380,2651,12010
6140,3284,4307,8142,-940,-5231,2822
6150,5143,13064,8242,6005,-5988,-692
6160,4396,21688,2945,12630,-208,-5275
6170,-2868,31838,-5354,21011,6250,-14689
6180,-4955,25704,-15987,24583,10914,-14361
6190,-1215,16372,-20284,21596,8707,-11468
6200,1886,9169,-16154,14514,3160,-9654
6210,6185,-1504,9802,1756,6160,-4958
6220,32748,-1366,32764,-3977,22338,1137
6230,18715,14621,-22951,15506,-25279,-1834
6240,21114,13837,-25263,12809,-17458,5492
6250,29917,9230,-20391,5482,-6190,12433
6260,29834,8245,-9770,-1822,8195,11451
6270,30827,8843,-10412,1852,8343,16327
6280,29439,7692,-10595,4681,1262,18505
6290,27325,10874,-9764,537,-2981,17083
6300,30371,13924,-8968,-2636,619,19431
6310,32748,16485,-8139,-4447,2442,21497
6320,32748,20421,-9449,-5099,4489,21091
6330,32209,30827,-12966,-6852,5125,15801
6340,29074,32748,-13339,-8484,2145,14401
6350,24520,32748,-12027,-10553,-220,14719
6360,12765,32748,-2303,-11038,-7815,17261
6370,7157,32748,6321,-7276,-10630,18188
6380,-5892,27308,23969,595,-6172,18870
6390,-10800,16738,24076,16510,6004,22857
6400,-4547,11689,11062,32470,8011,21576
6410,-9661,11305,3937,24680,11878,18094
6420,-12847,10706,6674,7146,6991,15841
6430,-13120,6183,8690,-5813,-12400,12168
6440,-12355,5236,2405,-3706,-11701,9520
6450,-10649,3956,-2095,-4316,-2575,1729
6460,-10075,4640,-2090,-4011,1462,-1923
6470,-9646,5525,-29,-3762,4419,-4689
6480,-8292,5728,3280,-3371,6047,-6818
6490,328,6141,6365,-719,6588,-11837
6500,3442,6247,4672,-1669,6847,-13894
6510,4396,6638,953,-4444,7659,-15478
6520,4439,11261,-3788,-9305,5738,-19690
6530,6190,16942,-3965,-10275,5179,-22323
6540,8822,23878,-2398,-10564,4800,-25529
6550,15633,32748,3181,-9837,5361,-30540
6560,20527,32076,4866,-9715,5260,-32179
6570,24688,32235,5617,-10559,6484,-32764
6580,28327,32748,6547,-11641,5967,-32766
6590,32748,32748,13435,-7541,4499,-28227
6600,32748,32748,13524,5985,13784,-17545
6610,32748,32748,-3687,28006,26640,-3051
6620,32748,14421,-12715,32759,13494,-11935
6630,16166,13617,-16911,29037,3780,-21676
6640,13445,15424,-11153,16971,-7192,-18918
6650,14316,18386,-6230,9463,-10015,-13252
6660,10723,15513,-4325,4727,-8064,-8100
6670,11190,12293,-6717,3412,-10519,-4990
6680,9320,6853,-6106,-4210,-14819,-360
6690,7136,2639,-3639,-8526,-14246,1136
6700,5530,-3110,-1570,-11881,-12267,2664
6710,5181,-8908,-121,-15856,-11717,4682
6720,4806,-13109,1786,-21196,-15119,9963
6730,3548,-14084,2792,-20846,-13403,12047
6740,1319,-15609,2511,-18296,-9913,13545
6750,1893,-14473,1856,-11977,-5051,15267
6760,2966,-14748,2527,-10825,-2739,15398
6770,4717,-14724,3756,-10211,-532,15731
6780,8959,-5027,10163,-9223,202,14644
6790,6669,6654,16130,1252,-9535,1759
6800,6925,20199,17040,9007,-9106,-3319
6810,4158,30590,13918,16360,-3882,-9241
6820,-3589,27090,-18447,32483,5737,-19858
6830,-2581,19932,-27180,31947,1409,-19439
6840,430,15803,-19978,25006,-3608,-19214
6850,15738,16220,28532,9425,17435,-20045
6860,17394,15112,29198,8858,31646,-18472
6870,13601,5883,-5795,10545,9793,-12361
6880,11253,-1423,-10722,1046,-10631,-1336
6890,32748,10074,-16417,4693,-8174,31882
6900,32748,5594,-17852,5543,-9803,24530
6910,23490,2439,-17827,1806,-7529,15468
6920,25743,7543,-8373,-7003,-1970,16534
6930,30836,12910,-6372,-5723,-1,17466
6940,32719,17298,-6855,-2267,2082,17400
6950,30916,28552,-17056,1886,2646,14840
6960,30976,32748,-16760,-1004,-3116,13621
6970,27796,32748,-13678,-4454,-8005,13213
6980,24451,32748,-11124,-6544,-7996,14282
6990,-1442,32748,32764,-1323,-7348,13890
7000,-2774,32748,28297,22959,22144,20851
7010,1561,27367,9693,32736,27739,26385
7020,-7174,21266,-8358,16453,14013,18020
7030,-5438,16846,1622,-7654,-2782,14513
7040,-3114,12226,9806,-12984,-13556,13884
7050,-7361,5143,9553,1078,-3417,9301
7060,-10486,3584,4754,5493,1643,6475
7070,-11748,2862,2254,5862,3677,4442
7080,-12200,3050,1597,4420,4318,2259
7090,-10940,3769,284,890,6584,-2865
7100,-10306,4063,-223,-167,6886,-5896
7110,-8981,5261,1177,-933,7030,-8744
7120,-4100,6955,1039,-2314,6894,-11556
7130,-864,8595,-235,-3545,4725,-12853
7140,975,9987,-1475,-5423,2720,-14727
7150,6543,19226,-3401,-7950,1582,-20045
7160,8100,24042,-1740,-8221,1156,-23951
7170,9641,26637,486,-7632,2192,-26047
7180,21375,28749,5146,-7217,3551,-27017
7190,27929,32572,5254,-9474,3815,-28984
7200,32748,32748,5523,-11945,2052,-29826
7210,32748,32748,9062,-11995,-278,-25534
7220,32748,32748,5661,12625,20359,-2327
7230,32748,31396,-6560,30386,29076,5103
7240,32748,16676,-6456,32766,24837,-2574
7250,16279,12962,-13197,31225,6165,-26692
7260,13373,16457,-12975,23319,-1039,-21190
7270,14999,19605,-8847,15472,-2291,-14981
7280,10936,18871,-3888,11583,-1802,-12252
7290,9980,14741,-4641,7525,-2376,-9691
7300,10067,11118,-4703,2525,-5989,-6371
7310,9295,7769,-5035,-2933,-9582,-3365
7320,6665,820,-3452,-9916,-11950,867
7330,5521,-4401,-1582,-11637,-10521,2372
7340,5175,-16835,-341,-16697,-9066,6265
7350,3977,-17882,342,-20091,-12566,8153
7360,694,-19296,1215,-20764,-13891,9604
7370,-4223,-19933,3522,-15484,-2848,12151
7380,-4131,-18459,3291,-11945,2369,12503
7390,-3252,-17287,4567,-9444,4679,13143
7400,93,-12730,7965,-7349,4239,12644
7410,1782,6783,20007,-343,-11794,5837
7420,4946,17883,12644,3974,-15165,3617
7430,5272,28389,11,7287,-14704,-872
7440,4825,30809,-13859,16789,-7271,-15375
7450,2421,22691,-15767,20780,4122,-19184
7460,2950,16192,-12527,21215,8117,-18957
7470,6461,13185,32593,18669,8759,-16564
7480,19993,17682,-13352,26476,11399,-9816
7490,24470,17749,-24105,22674,-15647,-3668
7500,24091,11808,-26469,10668,-16266,2689
7510,16369,1521,-11177,-11699,-6555,4721
7520,20466,2480,-7893,-14106,-4838,8093
7530,29005,3946,-8831,-11120,-5766,14749
7540,32748,4447,-8211,-7366,-9315,19492
7550,32748,1020,-5446,-2642,-7380,18421
7560,32748,1453,-4416,-101,-1201,16440
7570,32748,7508,-4452,5026,5581,14687
7580,32748,12572,-6252,6633,7259,14683
7590,32675,17872,-9172,6789,8848,14376
7600,31505,23655,-13233,5700,8190,13234
7610,23841,32748,-16290,-1084,660,11618
7620,18827,32748,-14693,-5096,-1554,12532
7630,15863,32748,-10764,-8242,-4315,13652
7640,9331,32748,2659,-7371,-11425,9535
7650,-9422,29678,31097,-672,-7514,5741
7660,-22064,18543,32703,19346,12479,11977
7670,-8471,16737,10314,32524,25034,22724
7680,-13601,13308,-1265,31879,26332,11617
7690,-18617,12347,2677,18855,25228,6067
7700,-16913,9249,4991,3116,13410,3229
7710,-11239,5854,-1159,-4303,-1082,-1387
7720,-9705,4810,-3605,-2654,166,-4129
7730,-8073,3725,-3148,-2270,1543,-6604
7740,-9611,1289,3727,-2874,2220,-9712
7750,-8876,2554,7199,-2751,7122,-13469
7760,-5636,6187,5750,-1014,7110,-13250
7770,-3087,9047,2054,-975,4379,-13904
7780,9330,25980,-3705,-7260,6178,-24658
7790,13687,32746,-2351,-7799,3915,-27102
7800,32015,32748,8922,-5916,-2769,-29341
7810,32748,32748,12516,-3562,91,-28624
7820,32748,32748,13743,160,9351,-22363
7830,32748,32748,2388,23403,25925,1980
7840,32748,19901,-1617,31951,17231,-1305
7850,32748,8957,-3574,32680,10509,-13675
7860,28597,10888,-3611,30377,10449,-21347
7870,15416,20390,-5737,17709,-1848,-15567
7880,12957,23381,-2683,10555,-7097,-12428
7890,10362,22607,-859,6427,-6771,-10238
7900,11392,12508,-4583,3602,-5280,-3885
7910,12205,8211,-6330,697,-7217,-504
7920,12876,4437,-5082,-3241,-8800,1939
7930,11059,1180,-4035,-5672,-7580,2870
7940,5516,-7049,-318,-6327,-3302,4518
7950,4267,-12856,1782,-5872,-1051,6251
7960,3907,-16625,2000,-6948,-66,8667
7970,2810,-18592,3823,-8503,-2390,10539
7980,-1870,-21282,6084,-2061,3159,12052
7990,-4344,-18206,3601,2614,7818,12844
8000,-6421,-9001,3369,3999,2958,15832
8010,-4474,-961,7498,4188,-364,14069
8020,-1810,12834,14260,6388,-3414,9262
8030,-4556,32748,-16746,15295,-15737,-8397
8040,-6072,32748,-17068,13989,-17882,-18606
8050,-8636,32748,-16815,15674,-3613,-22273
8060,-7793,31114,-20466,17469,5056,-17149
8070,5528,13247,-10453,7361,-4938,-11409
8080,12766,8341,12792,2063,-1673,-11835
8090,32748,12148,32764,2108,12824,-9350
8100,29277,11096,-14930,3638,-17961,-2991
8110,15574,203,-13349,-4826,-7116,1967
8120,12466,-4481,-10317,-9271,1404,7241
8130,14564,-5923,-7685,-12286,3310,12962
8140,32748,-2221,-5538,-6390,1528,24460
8150,32748,-473,-7829,870,379,24417
8160,32748,-1304,-10672,4835,-858,17898
8170,29391,2381,-10274,2620,713,13158
8180,30260,5255,-9973,1934,4456,14920
8190,30740,9101,-11401,1836,7363,15039
8200,29398,20558,-19823,2248,7213,13605
8210,28290,28325,-19957,1462,1583,11203
8220,26552,32748,-21028,673,1923,11925
8230,17140,32748,-15293,-1911,-4387,13253
8240,13774,32748,-11304,-2117,-10262,13903
8250,13096,32748,-6416,-1953,-15743,14232
8260,2103,31235,29908,6542,-10329,8399
8270,-4252,18079,32764,23128,20571,10652
8280,-1309,13063,23876,32648,32758,17489
8290,-1156,11946,15337,32766,32766,17879
8300,-18064,17004,-6690,23304,28115,9045
8310,-17559,12679,5839,1991,10894,5465
8320,-17091,9847,4627,-2727,431,3194
8330,-15275,8344,-9933,145,1776,-3860
8340,-11555,6966,-10163,-4615,294,-8071
8350,-9488,4330,-429,-12914,-5344,-17785
8360,-10696,3420,4391,-11887,-5520,-21663
8370,-12544,3053,7239,-8124,-2755,-22947
8380,-470,7660,4914,-802,4672,-17099
8390,5091,9375,3128,-865,5556,-17478
8400,5898,10789,443,-3345,5974,-20210
8410,6016,16547,-905,-8922,3582,-24540
8420,7754,22520,-411,-9509,3739,-24507
8430,14111,30232,1503,-8790,4188,-23365
8440,32748,32748,7425,-5232,5552,-25904
8450,32748,32748,8573,-3082,9114,-24593
8460,32748,32748,10362,13639,26469,3523
8470,32748,31032,296,30471,27660,12032
8480,32748,15561,-764,32766,12208,590
8490,27736,10746,-6271,28904,6762,-19678
8500,23141,14202,-6906,22525,2953,-17022
8510,19359,17535,-13265,18217,-4223,-12496
8520,16014,19724,-14616,10949,-12788,-8611
8530,10203,17932,-6217,-1565,-13587,-4544
8540,7846,12715,-6033,-2298,-7376,-3356
8550,9138,7129,-6026,-2487,-5420,-1317
8560,10425,-2802,-3455,-5121,-6809,2806
8570,8087,-7581,-741,-6753,-5545,4545
8580,5716,-12375,2367,-8207,-3289,6756
8590,3807,-16913,4658,-9507,-2019,9488
8600,-1374,-24056,13797,-10586,550,12905
8610,-3251,-25486,13571,-5312,7184,12522
8620,-4998,-23498,11237,2193,9602,11817
8630,-4762,-7817,7273,6127,2425,11803
8640,-2998,-841,8556,5278,-2345,11899
8650,-685,8253,14307,5016,-6446,10491
8660,310,23075,8347,6914,-8388,5740
8670,-9315,20487,-13918,14271,11704,-24001
8680,-5856,9813,-10657,10591,11356,-16888
8690,7442,-16463,32764,-2682,9543,-10003
8700,15650,-25351,32764,-13975,12675,-5008
8710,15712,-4577,10535,-16546,-22509,312
8720,18616,18284,-25562,-3620,-9832,9543
8730,32748,32748,-32748,-1274,6729,19631
8740,32748,32746,-32748,-9291,960,24817
8750,32748,20066,-24101,-12180,-7952,19189
8760,21574,1163,-7230,-2406,-459,7564
8770,14109,-3049,-5139,1586,2315,9141
8780,14362,-5017,-3903,3670,1513,12862
8790,32748,-2489,-2362,5454,2214,18591
8800,32748,-130,-2471,6581,3889,16780
8810,32748,4249,-6370,8895,5203,12600
8820,32748,9760,-11432,10840,5872,10620
8830,32748,18717,-15284,7448,7014,9719
8840,29689,22801,-14268,3816,7318,8370
8850,25086,27078,-12021,370,7013,7240
8860,18495,32748,-5763,-2178,7118,5513
8870,13362,32748,-2881,-1113,6836,4712
8880,8172,32748,565,1725,5134,4598
8890,-26749,22326,29917,22741,2036,8882
8900,-14328,18618,11597,32580,10635,19301
8910,-10823,18097,-3592,32766,22042,18138
8920,-22873,13760,1289,18845,22234,5057
8930,-19480,10568,1568,5013,10145,1767
8940,-15480,8853,-1694,-3824,-961,-990
8950,-9438,6167,-2918,-12660,-7889,-5541
8960,-8357,4777,-2420,-12997,-8256,-8551
8970,-7250,3426,-439,-13268,-7718,-11303
8980,-590,2705,7299,-11335,-2976,-14200
8990,5276,3900,11067,-8247,131,-14325
9000,9866,4171,12187,-4025,3699,-14463
9010,11288,4349,8488,-382,8677,-15215
9020,8167,7957,-380,-373,13136,-18051
9030,8507,12296,-2025,-2177,12248,-19823
9040,9870,17837,-2177,-3645,11432,-21435
9050,14989,28721,-765,-4244,10066,-23113
9060,19713,32713,959,-3405,7692,-22786
9070,26208,32748,5255,-1595,4471,-21755
9080,32748,32748,13955,2912,4753,-19667
9090,32748,32748,7628,27387,21398,-7365
9100,32748,25565,-977,32621,20396,-6272
9110,32371,14625,-4929,30366,12443,-16192
9120,23362,19993,-5783,22083,8305,-15957
9130,20721,25049,-7272,14059,1435,-12008
9140,14526,27576,-4963,2369,-5376,-7255
9150,13188,24191,-6176,876,-4624,-5906
9160,13135,19283,-6752,-824,-4035,-4124
9170,13598,14188,-5087,-3276,-4228,-1683
9180,13605,5211,-3226,-5508,-4796,1610
9190,13129,1470,-2072,-5217,-3525,2329
9200,11312,-1800,-547,-4061,-2130,2911
9210,7094,-8137,3135,-647,795,4902
9220,5036,-11365,4048,1475,966,5983
9230,2964,-13459,4939,3511,101,6887
9240,1166,-13454,2667,5025,371,7844
9250,-2761,-11299,675,-1213,4360,9351
9260,-5196,-8852,2555,-4535,2674,9203
9270,-7263,-5231,3840,-2167,-1490,7270
9280,-5246,13045,5669,4302,-2920,3324
9290,-7692,21048,-5419,16444,7675,-8528
9300,-12147,24887,-18929,16481,-3438,-12725
9310,-7142,24184,-19309,9218,-12757,-10582
9320,5097,10692,-11787,294,-6604,-5185
9330,5781,5878,-10012,-1834,-7601,-6165
9340,9402,1781,13522,-6877,-8584,-3815
9350,32748,414,32764,-1890,-1797,-1548
9360,25737,9710,-6203,17967,-138,-4184
9370,29201,13201,-19481,10958,-5136,6531
9380,28876,5703,-12708,3645,3895,12961
9390,24546,496,-9320,-2110,8283,14551
9400,27584,-437,-7115,-5500,6432,18413
9410,32748,-2198,-3777,-7368,-984,26373
9420,32748,-4697,-2593,-6772,-49,21617
9430,30974,-2159,-4343,-5758,1919,14892
9440,32748,3726,-4832,-2123,4525,14762
9450,32195,6690,-10086,1492,7390,15048
9460,32370,10479,-15618,3163,7732,14570
9470,32748,22523,-21345,-2343,4625,12470
9480,32748,30281,-22691,-5899,2681,11694
9490,30845,32748,-23581,-8961,-487,11634
9500,27607,32748,-22264,-12288,-6384,12153
9510,19706,32748,-5737,-15257,-21002,13950
9520,14630,32748,5938,-10183,-24540,12168
9530,8533,31513,16126,57,-17814,8384
9540,518,6951,32764,31248,30348,16410
9550,3034,7412,21654,32766,32766,19774
9560,-9858,9539,-4201,-3959,-925,4467
9570,-10163,8989,-7295,-5135,-2382,1310
9580,-10505,8576,-5674,-9148,-3769,-1607
9590,-7680,8327,-2132,-13279,-6355,-7378
9600,-8174,7513,775,-13055,-7729,-11564
9610,-9574,6729,2613,-11286,-6909,-15485
9620,-11256,6147,4334,-8793,-4001,-18068
9630,-7938,5398,3621,-4223,1924,-15916
9640,-807,5833,3390,-3495,2150,-14391
9650,3196,5052,2656,-3879,2567,-15418
9660,5628,6961,-1255,-6744,6189,-18208
9670,5847,12097,-2009,-8168,7225,-19090
9680,8397,20292,-2813,-9160,7646,-19477
9690,22041,32748,-2935,-11156,4677,-22470
9700,28890,32748,459,-11042,1345,-27039
9710,32748,32748,7248,-8376,-153,-29372
9720,32748,32748,21113,-342,5123,-22008
9730,32748,32445,-3055,32550,29236,3258
9740,32748,19263,-7202,32766,9772,-2732
9750,32748,10117,-16157,32524,-454,-18000
9760,28458,15724,-10252,4467,-11010,-15138
9770,26488,18823,-6016,-6517,-16068,-10901
9780,23694,19173,-5117,-10273,-15146,-8488
9790,18570,11560,-9023,-10134,-11556,-5085
9800,15443,6501,-9512,-10559,-11134,-2890
9810,13500,1038,-6809,-11879,-10643,-694
9820,8229,-9517,-2324,-14121,-5860,1555
9830,5814,-14986,197,-15906,-5000,2927
9840,3838,-18039,3364,-17672,-6174,5037
9850,-507,-19645,10345,-16745,-2816,10609
9860,-3397,-20487,13412,-14987,2339,11842
9870,-4265,-21116,13416,-9831,6665,11642
9880,-3304,-16388,10180,-3426,7996,10665
9890,-3560,-2062,5794,-1816,1263,8085
9900,-1465,3181,4014,85,-3861,7698
9910,-606,9762,1130,4057,-6448,5877
9920,-843,15848,-860,7012,-5955,2037
9930,995,27246,-5628,9715,-4764,-7593
9940,1455,29888,-6284,12064,-3482,-11336
9950,-69,26940,-10219,14863,3193,-11686
9960,5964,11674,-16189,10466,-2537,-8963
9970,4865,4413,-8819,4661,-5395,-9216
9980,4655,-1744,-1374,222,-2090,-6507
9990,29825,-9165,32764,-1834,-594,-638
10000,31584,4212,-9610,11435,-14776,4923
10010,32748,4944,-16743,11383,-7464,12095
10020,32748,3323,-17443,7456,-988,12141
10030,32748,975,-9130,350,3080,4621
10040,29449,1417,-9728,2188,2444,8000
10050,27727,1153,-7556,1801,233,12230
10060,31859,3287,-5326,-1276,2486,17813
10070,32748,5620,-5075,-1536,3875,18312
10080,32748,8486,-7401,467,6722,17373
10090,32748,11083,-12715,3711,9680,15624
10100,31619,19136,-23348,1265,6341,14897
10110,30804,23864,-24002,-4593,912,15665
10120,29969,29234,-21036,-11260,-3382,16918
10130,20107,32182,-10310,-19671,-13413,18678
10140,18158,32234,-590,-18554,-20773,19121
10150,17435,31448,5947,-11973,-22721,17430
10160,-458,16110,32764,18667,6611,11495
10170,740,10994,26628,32367,31699,17499
10180,-935,10324,18290,32766,31281,18571
10190,-2470,17007,-841,32739,28431,15546
10200,-11953,16059,-515,806,11206,8087
10210,-10729,12634,4071,-8655,530,8385
10220,-9908,9863,2482,-6140,-2481,7035
10230,-9673,8838,-5265,536,-1030,-1171
10240,-9310,7201,-4954,-2634,1971,-5569
10250,-10094,5886,-2474,-6402,4176,-9852
10260,-13993,4623,2636,-8592,5683,-15911
10270,-13936,5006,2219,-7014,4430,-16253
10280,-7980,7347,982,-5547,1363,-15512
10290,3606,7255,1675,-5587,559,-18379
10300,5181,7736,-622,-6094,3741,-20074
10310,6510,10945,-2657,-6735,6149,-20522
10320,9872,16876,-3361,-6739,6743,-20100
10330,21129,31771,-5458,-6543,7563,-22160
10340,26503,32748,-4230,-7518,4675,-25292
10350,30352,32748,-650,-8598,191,-29011
10360,32748,32748,6372,-5092,-1963,-22030
10370,32748,32748,10879,5134,8303,-8558
10380,32748,32748,-1772,24926,19745,6567
10390,32748,23666,-6567,32663,9016,6041
10400,31384,12977,-17584,25416,-8403,-18851
10410,24671,15037,-16662,12761,-14488,-17520
10420,30852,18078,-10390,-1162,-17678,-10395
10430,26641,13966,-1342,-13574,-16990,-6133
10440,23439,8396,-3120,-12140,-15799,-4907
10450,5767,-12386,711,-13852,-8989,5125
10460,2034,-15303,4589,-15794,-6433,7190
10470,-3492,-17863,11771,-16449,-5736,9612
10480,-5028,-18843,14945,-14614,-3350,13248
10490,-4277,-18303,15456,-12247,1696,12379
10500,-5959,-13981,11005,-7679,4627,9022
10510,-2378,-4885,4899,-5721,-998,6461
10520,811,-1209,3021,-6453,-2714,5991
10530,467,2707,846,-4159,-3424,4615
10540,816,6807,-2615,-273,-4531,2620
10550,5660,21033,-4425,4834,-5590,-5522
10560,8276,27013,2338,12423,-1223,-12246
10570,6381,25795,-3370,23997,8406,-17971
10580,4889,12003,-19394,25877,6445,-15055
10590,5255,5588,-13319,15501,6468,-12180
10600,2953,599,-5695,6723,6961,-10702
10610,10966,-6416,29772,1397,6491,-7532
10620,30011,11483,-25105,25339,-26187,-5722
10630,32748,18103,-32748,14186,-21436,-5097
10640,28408,12113,-30615,-4358,-11576,-1048
10650,6373,-2913,-5073,-17455,6000,4094
10660,6638,-5760,-1755,-14012,8303,6914
10670,15088,-4360,-2538,-7537,5228,10971
10680,32437,2378,-4729,4432,-3322,18855
10690,32748,4982,-5789,7746,-4773,20908
10700,32748,8215,-7024,10158,-3933,19837
10710,32748,13776,-12742,10385,5985,12889
10720,32748,16985,-16161,6514,9414,12950
10730,32674,20929,-18070,563,9306,14059
10740,28350,29892,-16820,-6774,4538,17049
10750,24481,31939,-11417,-19923,-2147,19064
10760,21343,32480,-5218,-22759,-10003,22349
10770,19924,32748,3775,-21475,-16684,24372
10780,6028,24347,27534,9479,-6730,26191
10790,7973,20420,8712,26754,7532,26511
10800,2247,20532,3346,22582,9820,20396
10810,-3262,16411,10866,-823,55,14857
10820,-4835,11481,14172,-3049,-3181,13267
10830,-6937,9168,8019,360,-2003,10496
10840,-9277,8946,394,2582,1269,6650
10850,-11677,9972,-2411,-1667,3977,449
10860,-10156,10530,-1675,-2846,2689,-2089
10870,-10143,10261,19,-2951,1926,-5213
10880,-9965,9488,4903,-1741,7099,-9920
10890,-6247,9707,4873,-1483,10034,-11515
10900,-1619,8268,2224,-3394,8446,-13899
10910,4417,7457,-1081,-10742,4439,-17067
10920,7254,9576,-2216,-12348,5061,-18882
10930,11510,14192,-2289,-12666,6496,-21321
10940,18670,25654,-3851,-10944,8301,-28110
10950,21503,30725,-2846,-11266,6352,-31395
10960,26583,32748,1349,-11946,2575,-32741
10970,32748,32748,9795,-11432,523,-32766
10980,32748,32748,9369,2070,13632,-30496
10990,32748,32746,910,17631,20694,-14933
11000,32748,23020,-11493,31833,17938,1597
11010,32748,5739,-16026,27322,-4032,-15898
11020,23053,9941,-13380,19841,-3409,-23920
11030,21000,16746,-11225,13541,-7020,-20654
11040,20369,20673,-6512,239,-13632,-11997
11050,17703,16241,-6695,-3364,-12840,-9548
11060,15916,10846,-6946,-6175,-12876,-6464
11070,13983,6495,-6917,-9984,-14447,-3524
11080,9570,-1458,-3882,-20140,-14410,190
11090,6874,-6526,-3869,-23753,-14261,2764
11100,3630,-14656,826,-24938,-13753,9985
11110,2461,-17610,3089,-23344,-10311,12912
11120,2448,-19310,4787,-20903,-7361,14247
11130,2651,-20111,6306,-14497,-2469,12202
11140,2866,-18983,7009,-12570,1104,10882
11150,3626,-12275,6719,-8804,1444,9251
11160,4002,-6888,3275,-3729,-2563,8293
11170,5094,-1189,2025,1325,-7766,7733
11180,9044,16704,10391,11504,-11630,2136
11190,8489,27402,8414,17541,-3550,-4051
11200,2277,32730,-4558,23933,889,-11134
11210,-1623,22379,-22044,25523,-6330,-15159
11220,-1514,13258,-14305,17006,-3958,-12233
11230,-1874,4889,-3117,8764,1149,-7780
11240,19243,2958,13045,1343,15309,1308
11250,24145,17136,-26238,2662,-18921,-3611
11260,32748,24139,-32618,-2905,-29511,-6070
11270,32748,15436,-24108,-8072,-16025,2794
11280,17143,-3803,-5132,-9822,8318,9032
11290,9604,-8839,-2821,-6459,7181,7688
11300,11239,-6965,-5953,-584,293,8907
11310,32748,8790,-8893,1104,-3855,19680
11320,32748,7945,-7140,-324,2215,15007
11330,32069,9466,-7835,-358,3287,14005
11340,32748,16767,-11554,-2568,1389,16880
11350,32748,20881,-10751,-6078,-1166,17563
11360,32082,23696,-6624,-9522,-4097,17341
11370,27044,25266,-2719,-10883,-5594,17433
11380,16428,26545,15035,-5091,-5527,19727
11390,8804,25651,21495,7387,-1679,19451
11400,6550,23720,8547,23872,6413,19063
11410,-6407,18829,16632,30372,10077,15654
11420,-9035,20084,10557,20791,11679,13919
11430,-8517,18644,6394,3990,6066,11475
11440,-6049,15432,7868,-7043,-1996,9455
11450,-5851,8653,2112,-2553,-1310,5735
11460,-6540,6714,-2168,-459,1101,3120
11470,-5986,6402,-4219,-1904,2019,344
11480,-2813,6653,-3666,-5664,-1501,-6114
11490,-3238,5752,-1161,-6843,-2541,-9766
11500,-5414,5313,1493,-6807,-994,-12586
11510,-10538,6890,8384,-3259,6974,-13764
11520,-6817,7749,7943,286,10648,-12326
11530,703,7722,5137,1744,10146,-11979
11540,6351,8809,-311,-3085,9798,-17004
11550,9065,11959,-2183,-3878,11337,-19834
11560,13542,16757,-3300,-3339,11995,-23124
11570,21061,31334,-4476,-3691,9437,-31301
11580,23747,32748,-1357,-5354,5879,-32743
11590,30902,32748,7698,-6063,4297,-32766
11600,32748,32748,16808,9584,13642,-26487
11610,32748,32322,8504,25977,20490,-13561
11620,32748,18889,-4045,32718,20713,-3237
11630,32748,9558,-12067,32766,11582,-9383
11640,22957,17186,-11707,21896,-3677,-22665
11650,22947,23293,-9644,12955,-8647,-16489
11660,22217,28994,-7574,7388,-10824,-13318
11670,17392,22009,-4040,419,-8946,-9192
11680,16453,16744,-7059,-1602,-10486,-6247
11690,16620,12473,-7529,-5539,-12552,-3187
11700,11404,4789,-3414,-15669,-13978,1008
11710,8047,560,-1451,-19179,-12658,3123
11720,5539,-4002,-383,-21222,-11598,5572
11730,4609,-8053,854,-22035,-11654,8419
11740,1995,-13544,3261,-20761,-11906,13565
11750,293,-14939,3597,-19163,-10653,15600
11760,-825,-14972,1807,-14404,-4635,15645
11770,-1313,-14970,2863,-13709,-830,14575
11780,1067,-13616,3158,-12412,1115,13743
11790,3111,-13267,4042,-10900,1623,11304
11800,5261,-5641,4299,-6058,-1133,3570
11810,6295,1736,8922,-964,-5849,458
11820,9465,13190,12760,7697,-5511,-2617
11830,4016,26120,-9264,29518,-578,-15408
11840,2153,25267,-20332,32422,-1153,-18507
11850,-694,21207,-21015,27057,2250,-15751
11860,1345,5280,-9183,7196,8385,-5483
11870,253,489,-4042,586,8037,-3568
11880,6082,-5261,22162,-3915,8480,-764
11890,28029,-9175,32764,-763,14287,2047
11900,24859,4788,-21363,14908,-17038,-2165
11910,32478,9842,-30043,10479,-6782,2728
11920,32748,11055,-30780,2610,1870,7593
11930,20681,6839,-12694,-6064,4691,5382
11940,16488,6710,-10537,-4472,-478,10214
11950,20856,8293,-9387,-4955,-3565,14818
11960,25829,9769,-6799,-7169,-4364,17987
11970,32748,13785,-4705,-6945,-1856,24182
11980,32748,17690,-7851,-5464,-281,25081
11990,32748,30034,-20467,-9987,-216,17272
12000,32748,32748,-16378,-17130,-4671,13362
12010,27430,32748,-9521,-22294,-9748,13972
12020,15735,32043,12155,-17852,-21968,20770
12030,6770,23923,32764,-4080,-16943,23904
12040,10126,19471,18310,18652,2973,27288
12050,7123,15091,13796,27162,10357,25081
12060,-546,15859,4276,-2618,1719,17539
12070,1247,12659,12127,-14871,-8180,16352
12080,562,9650,16747,-12450,-8957,14886
12090,-4391,6582,502,610,862,10717
12100,-7243,6272,-2252,-1445,2953,7559
12110,-8665,6435,-2038,-4077,3677,3932
12120,-8743,6375,-1591,-4710,3429,-72
12130,-9961,5558,413,-4096,3428,-7769
12140,-11628,4997,3261,-3848,5386,-10639
12150,-11126,4721,4755,-3191,9290,-11047
12160,-525,3722,3,-3591,9467,-9589
12170,318,3977,-1876,-5752,7365,-11156
12180,2645,5726,-2452,-7671,6669,-12793
12190,13818,28064,3020,-4829,8950,-29192
12200,18780,29876,9130,-3538,6553,-30296
12210,23688,29714,8008,-2161,4801,-31911
12220,32748,32748,1057,-5719,3274,-32410
12230,32748,32748,7978,-3758,3642,-25595
12240,32748,32748,-1981,13782,13057,-6782
12250,32748,24986,-22698,32734,-3995,-3301
12260,32473,16180,-18194,30319,-16008,-20676
12270,23021,16338,-18469,22463,-11071,-23711
12280,27473,18085,-10752,12238,-10140,-17987
12290,26517,13905,-3244,992,-14534,-11274
12300,21943,10436,-5815,-1290,-16142,-7744
12310,17885,9396,-9192,-5157,-18502,-4538
12320,10605,4899,-3934,-17514,-19524,-906
12330,7750,363,-415,-21006,-18080,694
12340,6399,-5733,2012,-22837,-15962,2892
12350,5672,-17775,2611,-29442,-17427,8358
12360,4958,-19775,4493,-32424,-18847,11313
12370,2870,-19629,7501,-32767,-15370,13403
12380,1822,-18871,9994,-32766,-9541,14044
12390,-49,-19647,9806,-26233,1694,9401
12400,246,-16454,10918,-21437,3408,6311
12410,1501,-4459,6444,-8295,-3804,3650
12420,2144,2273,3939,1399,-7767,1944
12430,1872,8570,959,11933,-8450,-951
12440,8492,22145,-1504,27450,-4842,-9013
12450,8438,27268,-7642,31668,5244,-14689
12460,4108,27091,-19386,32762,10669,-19137
12470,3489,23176,-24733,32467,6120,-18971
12480,16151,17819,32469,19751,1832,-13164
12490,28949,22433,24953,25686,20783,-11653
12500,29119,12549,-9557,23200,7617,-11275
12510,14921,-7846,-11510,-17548,-8486,2777
12520,18786,-9519,-4287,-20303,-7559,11046
12530,28605,-6966,-5389,-14729,-425,18201
12540,32748,-3023,-8238,-7915,2663,22221
12550,27154,-1213,-9397,-1488,-5897,17107
12560,25913,632,-9846,-987,-8154,13878
12570,30166,3543,-9129,-1031,-6094,15496
12580,32748,12054,-12150,440,-3316,18809
12590,32748,16236,-14278,-813,-3236,18293
12600,32748,19866,-15303,-3578,-2394,16918
12610,32748,24467,-17509,-7429,-2894,16494
12620,28930,31556,-10779,-17772,-12747,17421
12630,25465,32715,-6735,-19600,-14901,19801
12640,19959,32733,8723,-13641,-21885,22032
12650,2952,21184,32764,-1164,-18640,20836
12660,10328,13134,32764,26285,7496,24659
12670,10945,13559,9994,32709,23079,24097
12680,-1727,13677,-819,538,6666,14895
12690,-1671,10007,8445,-11982,-3750,15127
12700,-3323,8031,14519,-9036,-6862,15249
12710,-8955,11430,6529,1227,896,11720
12720,-13541,13014,4620,8591,6371,8539
12730,-16175,14486,3449,7228,8473,4802
12740,-16173,15367,-1559,5867,7560,695
12750,-14136,13027,-5963,-1533,3986,-9576
12760,-12793,10862,-2863,-6354,4738,-13019
12770,-7134,7555,221,-9843,6448,-13244
12780,2305,3800,1632,-13187,6018,-13783
12790,3838,3863,768,-14382,5073,-14940
12800,6371,6675,-516,-15178,4544,-15712
12810,10259,12674,-2062,-15343,3863,-17291
12820,17961,29533,-3483,-13310,3285,-25749
12830,19958,32748,-4547,-11627,3139,-29923
12840,26017,25600,647,-13642,-308,-31201
12850,32569,25981,6194,-15494,-1044,-30287
12860,32748,32220,9762,-15216,666,-27115
12870,32748,32748,14773,-11450,3935,-20308
12880,32748,26296,3400,22513,23058,264
12890,32748,14217,-2159,32487,19578,-2207
12900,32748,7537,-15020,32766,10875,-15740
12910,18136,16331,-25639,23544,-12915,-25222
12920,23238,23747,-16732,10135,-17545,-20163
12930,27240,27150,-7311,1588,-13175,-17985
12940,24673,18386,-3167,-4959,-10831,-12093
12950,22375,11850,-4094,-9093,-14247,-9264
12960,18920,6748,-3987,-12893,-14580,-6697
12970,14159,3355,-5008,-14507,-13607,-4548
12980,6223,-2668,-2525,-16310,-14792,-434
12990,3997,-5863,-1958,-16266,-13701,2121
13000,1087,-9547,-1411,-15993,-13974,4460
13010,-274,-14945,238,-16465,-15464,10736
13020,-161,-15183,792,-15510,-16348,12685
13030,-1041,-14775,620,-14155,-15234,13460
13040,-2033,-13773,4290,-13794,-11356,13654
13050,9901,-4947,6036,4611,-2368,1473
13060,10023,-3319,690,5921,-2531,-692
13070,8985,951,-1290,4685,-2235,-2181
13080,9123,14067,-5964,6620,-2806,-4474
13090,5962,16516,-12129,11136,-1979,-7700
13100,4462,14272,-14424,16752,-4345,-10490
13110,2037,8210,-9372,20049,-5842,-12530
13120,1954,8715,-2991,16713,-169,-11924
13130,8993,14681,2922,15502,5244,-11141
13140,24743,22424,-3260,18322,7244,-11471
13150,28768,11714,-15364,11322,1828,-2336
13160,24681,5588,-13010,211,-7856,3551
13170,22262,2844,-8153,-7026,-7179,9425
13180,21745,1590,-3899,-11276,-2809,17464
13190,20942,385,-3417,-11781,-1825,17272
13200,23293,1003,-4551,-12906,-1075,17643
13210,26742,3171,-3972,-13475,-1131,18639
13220,32748,11831,-10472,-6414,-1377,20782
13230,32748,15939,-15266,-4721,-2673,19580
13240,32748,20316,-17790,-6180,-4229,17986
13250,31286,31021,-21273,-14762,-9041,16826
13260,25865,31841,-16486,-20008,-12374,18303
13270,23699,32294,-9419,-22789,-18351,21788
13280,20680,30598,6885,-14631,-29658,21876
13290,12743,25674,32555,-3294,-27189,17864
13300,9334,16740,32764,19373,-217,18269
13310,9187,18847,1547,30889,22401,19841
13320,1227,18916,-3587,11823,10160,15817
13330,-879,14159,8704,-8846,-2500,13871
13340,-5744,6696,12810,-4650,-4028,12258
13350,-7797,6212,4901,2828,1509,9148
13360,-10501,5506,546,3036,6102,5516
13370,-10738,5617,-1956,490,8076,2358
13380,-8656,6907,-895,-4549,7040,-3669
13390,-9061,6998,13,-5977,6429,-6800
13400,-9181,6271,1885,-6840,5359,-9192
13410,-2336,5193,2677,-7237,4849,-11581
13420,1333,6118,931,-7774,4176,-13205
13430,4205,7847,165,-8689,4722,-15175
13440,7854,11024,-847,-9077,6541,-17239
13450,14933,20708,-2388,-8709,9141,-23751
13460,17400,26975,-3523,-8169,8908,-27517
13470,19350,31867,-3763,-8389,7026,-30519
13480,27688,30810,8019,-11818,1639,-32766
13490,32748,32211,16697,-10362,6291,-32766
13500,32748,32748,13248,-2259,14847,-31187
13510,32748,27672,-6314,28902,23609,-6810
13520,32748,21686,-19212,32765,12643,-4785
13530,32748,14001,-28091,32766,-340,-15600
13540,21225,23480,-20857,24827,-9231,-25540
13550,21209,27674,-11981,12387,-13670,-20371
13560,20555,26109,-4628,1446,-13734,-15486
13570,19292,15130,-8930,-7460,-17040,-7535
13580,18605,11604,-12253,-12472,-19063,-4247
13590,16599,9106,-11519,-18933,-20243,-1772
13600,13131,4216,-3666,-23686,-19335,-110
13610,7314,-7111,-865,-22092,-14041,3393
13620,5809,-13030,407,-22901,-14643,5635
13630,4710,-17494,3218,-25744,-16955,8465
13640,3770,-19481,8901,-27378,-18041,15788
13650,2945,-16993,8684,-25049,-13997,17024
13660,1731,-13903,9174,-22686,-8789,15559
13670,1163,-11721,11291,-19848,-3674,12521
13680,4077,-7638,10160,-7844,1837,7955
13690,4801,-4889,6329,533,581,5761
13700,6664,1543,-970,14089,-4689,967
13710,9905,6011,-851,18217,-5234,-1620
13720,12439,12511,-759,22295,-4525,-4449
13730,7623,23899,-10328,28511,-1114,-12891
13740,5232,24315,-19284,28977,118,-16461
13750,3069,19494,-18736,24856,-2040,-18406
13760,-1340,10143,-9925,17502,-1883,-18219
13770,18000,2063,32764,9620,15216,-5874
13780,21011,17848,-2324,21691,11808,-3356
13790,32748,30397,-23623,24260,-6321,-1597
13800,22061,7039,-9272,-6753,3168,-4725
13810,10378,-1367,-3327,-13455,7892,-3037
13820,6319,-4922,-877,-13120,5627,5647
13830,11175,-4617,1185,-10680,1530,17790
13840,24897,-19,-2265,-5187,-3849,32135
13850,32537,2922,-6307,-5111,-5485,32709
13860,32748,6940,-9027,-7003,-7833,31500
13870,32748,19611,-18548,-12019,-6082,22806
13880,32748,23183,-20627,-16559,-3065,17230
13890,32748,26957,-19041,-21066,-2929,14337
13900,29016,30470,-16274,-23432,-5170,11946
13910,-2687,15444,32764,6211,-14291,18135
13920,7439,15134,8330,31222,13514,21685
13930,3144,15887,-3087,14294,8630,16173
13940,3653,12344,4463,-7821,-2906,13253
13950,-1494,3644,15764,-14195,-10169,11502
13960,-3549,2705,8281,-7551,-5052,10501
13970,-5674,3280,175,-3015,-659,8382
13980,-7090,5263,-3383,-2341,1246,5664
13990,-9336,5490,-919,-4418,2372,-2572
14000,-12505,5572,3113,-4488,4207,-6141
14010,-14144,6465,7437,-3012,7229,-7285
14020,-3428,8905,6650,1331,9543,-9712
14030,-447,6929,3508,-662,9208,-14286
14040,1602,5788,1921,-4835,10006,-17034
14050,5862,8974,-2101,-9129,13463,-20562
14060,8740,13228,-3476,-9063,14995,-23024
14070,12932,19279,-4130,-8449,14710,-26433
14080,16777,27953,-6391,-7877,13248,-30228
14090,23243,32748,-7355,-11460,2931,-32766
14100,27588,32748,-155,-14146,-2453,-32697
14110,32748,32748,11529,-12232,-3914,-29468
14120,32748,32748,3711,21818,14955,-6847
14130,32748,23731,-12143,32560,18095,398
14140,32748,11259,-15877,32617,3371,-6736
14150,26695,8958,-13578,16325,-4532,-18434
14160,24616,16002,-9409,6948,-9146,-15198
14170,22984,20164,-8244,333,-15338,-12287
14180,17877,17435,-6733,-8896,-16116,-7656
14190,16346,13038,-4598,-11984,-14503,-4880
14200,15649,8248,-4700,-14025,-14315,-2773
14210,13861,-1757,-500,-20363,-13883,1075
14220,12237,-5667,2718,-22514,-13232,3044
14230,9616,-9007,6408,-22720,-13112,5083
14240,4791,-12597,11753,-20653,-13182,7988
14250,3052,-11509,11954,-16573,-9852,13839
14260,2960,-8826,10299,-16400,-8141,14222
14270,3070,-6216,8689,-16277,-7247,13064
14280,2863,-816,4228,-13182,-6296,9636
14290,1760,2024,2234,-9945,-7778,7408
14300,672,4957,852,-5554,-9111,4762
14310,1336,10199,316,463,-6079,-346
14320,3359,13683,4647,2819,-3346,-4331
14330,2906,16929,4581,8447,42,-9425
14340,2050,16403,-3408,16652,2799,-12941
14350,6692,10387,-18783,18201,5232,-13686
14360,5494,8281,-15678,12418,4719,-14968
14370,12786,7925,-9313,3027,2168,-11806
14380,28140,16640,-5890,1346,1814,-4041
14390,32748,21511,-6229,4793,-1616,7067
14400,32748,11512,628,7705,-10724,14271
14410,17071,-6485,2269,6806,-3751,3928
14420,10998,-7858,-1645,3159,4820,4183
14430,14979,-7356,-2428,-533,2951,7515
14440,30482,-2545,-5047,-7811,-4845,14276
14450,32748,650,-4169,-10877,-5710,16200
14460,32748,5055,-4244,-10668,-4534,16881
14470,32748,9046,-6072,-7108,-1559,16586
14480,32748,16867,-13471,-4051,1657,16023
14490,32748,20760,-11874,-6687,1727,15425
14500,29824,24577,-12349,-8977,1947,15223
14510,24080,30506,-9746,-15396,-8173,17356
14520,22803,32732,-2633,-16749,-16685,17538
14530,19498,32748,8203,-13519,-22003,15347
14540,-856,24049,31153,-1612,-20247,12407
14550,4351,22520,13661,32766,15571,22682
14560,-1697,22938,-1012,28332,18529,16793
14570,183,15899,5264,-18061,-4974,11506
14580,365,11090,9781,-22813,-9712,10997
14590,-1065,7127,8098,-17743,-8577,9379
14600,-3201,2434,251,-8847,-1811,5789
14610,-4503,1451,-511,-8589,-693,4220
14620,-5777,1109,-395,-8852,-278,2574
14630,-8102,2443,1222,-8927,1519,-1611
14640,-8133,3200,1949,-8477,3036,-3493
14650,-7512,3735,2543,-7684,4573,-5071
14660,-487,3165,4301,-5038,7821,-8685
14670,2239,2286,4280,-3493,9944,-10854
14680,3815,3436,3299,-2108,12681,-12634
14690,5520,5749,432,-819,15674,-14310
14700,10600,13724,-4649,-882,18386,-19892
14710,16534,21390,-6254,-1352,17324,-25448
14720,20398,32388,-9256,-1978,15092,-31623
14730,16521,32748,-13250,-8495,807,-32766
14740,20649,32748,-3827,-13052,-8107,-32085
14750,27945,32748,2633,-10387,-5698,-24703
14760,32748,32748,10849,575,4780,-13207
14770,32748,23100,-5053,32205,4113,-3773
14780,28419,20225,-10854,-8200,-27948,-8131
14790,29276,20527,-8973,-10538,-25227,-6698
14800,27525,15724,-7989,-8959,-20512,-6164
14810,22603,2747,-6696,-5000,-16435,-3129
14820,18566,-2295,-3304,-6584,-16855,-2073
14830,13366,-5663,-63,-10399,-17291,-738
14840,10597,-6838,2597,-15669,-17587,1605
14850,7943,-8146,10697,-26818,-15799,7863
14860,5435,-6983,12823,-30741,-13017,10737
14870,3310,-3953,12580,-32273,-11512,12095
14880,2681,-2094,6911,-32069,-7836,10938
14890,4288,-3450,5925,-30577,-6760,9486
14900,4369,-4259,4850,-27011,-6520,7554
14910,3712,-5272,3371,-21686,-6965,5021
14920,3254,-5657,608,-10200,-6255,1179
14930,2890,-3751,21,-4314,-3909,-561
14940,1808,-1342,-23,2703,-1835,-3119
14950,515,4505,1173,22484,-1619,-8368
14960,-484,9433,-2619,31030,-3379,-11450
14970,1421,12985,-18919,32766,-2008,-15027
14980,362,11637,-24340,31709,-2060,-19460
14990,-3817,4755,-10329,12851,-1438,-18801
15000,-3208,3339,-3291,5026,2145,-12898
15010,32703,32734,14215,9022,-3200,-953
15020,32748,32748,6374,19917,-11636,1645
15030,32748,28734,-16875,17122,620,-2878
15040,15008,-1878,-4550,-10886,1890,3933
15050,9650,-7172,-2238,-16297,-1302,12150
15060,9766,-10004,-1767,-18159,-2236,20907
15070,14020,-10363,-1453,-19562,-2335,27105
15080,32748,-1129,-3472,-16278,-4283,30379
15090,32748,7041,-7657,-11378,-6207,26716
15100,32748,14983,-14948,-7002,-7632,18209
15110,32748,26178,-21091,-11074,-3253,11506
15120,29554,28533,-18206,-17175,-1082,11136
15130,21627,29002,-14020,-22438,-2776,12485
15140,17895,28844,-6082,-25286,-11369,15458
15150,6210,24792,30208,-15516,-28644,15953
15160,-5093,17912,32764,8742,-18378,17372
15170,6150,16471,15373,31551,5059,22602
15180,-1654,22215,1092,21945,11801,11405
15190,-2931,15844,-1136,-6575,2200,8710
15200,-1519,11835,5205,-24677,-8681,7657
15210,-3103,5014,7326,-17777,-6808,4627
15220,-2868,2748,2213,-10315,-2557,3474
15230,-3163,1115,-849,-7469,-501,2224
15240,-4653,-423,-1837,-9126,41,-390
15250,-6006,-323,-330,-10739,256,-2374
15260,-7959,342,1845,-11600,1859,-4392
15270,-5000,2671,5956,-8783,5914,-6560
15280,1095,3194,5185,-5232,8111,-7580
15290,4424,3876,3571,-1935,10995,-9323
15300,7993,9473,-1079,446,14231,-13248
15310,11006,13932,-3141,2988,17737,-16212
15320,15796,20605,-5295,3327,17255,-20491
15330,19830,30135,-7452,3145,15633,-26388
15340,15122,32748,-6408,-1032,5780,-32336
15350,19670,32748,3842,-2884,-271,-28558
15360,29285,32453,13553,-551,-2803,-24651
15370,32748,31337,5195,9212,7166,-19987
15380,32748,26202,-3858,17777,11530,-14129
15390,32748,23345,-13598,23414,8125,-10247
15400,32747,18206,-18443,9742,-14596,-14075
15410,31652,17135,-17457,3270,-18511,-12738
15420,29393,17714,-14686,-415,-18526,-11636
15430,26842,16176,-9275,-40,-15740,-8889
15440,23628,12307,-6703,2541,-14006,-8191
15450,20912,8038,-4912,4939,-12859,-7034
15460,14705,5239,-3021,1657,-14713,-2492
15470,11782,5660,-2551,-3812,-16046,832
15480,9937,5423,261,-9896,-16681,3728
15490,6722,1792,4168,-15059,-15389,8229
15500,6786,-384,4626,-22088,-13482,10089
15510,6562,-2853,5001,-24540,-12985,10876
15520,6187,-4585,3718,-25266,-11834,10629
15530,3680,-6604,1949,-23225,-9343,9325
15540,2735,-7257,1573,-20570,-9276,8235
15550,1970,-7072,427,-17629,-8276,7130
15560,1877,-6381,1813,-11395,-5969,5598
15570,2765,-5894,2856,-5482,-5437,4196
15580,5059,-4201,2724,2545,-5215,1959
15590,4310,1960,4202,19412,-4290,-4787
15600,3451,5454,6688,27442,-5346,-6305
15610,6150,10242,-6652,32465,-6182,-7882
15620,6221,13904,-18915,32494,-5293,-12036
15630,-142,8925,-14832,16676,-8900,-17949
15640,-2123,4114,-7477,7946,-9661,-15559
15650,26091,18700,-9059,5625,-10140,-2381
15660,30325,18293,-13205,-1943,-13190,6874
15670,32748,15815,-13212,-6553,-10224,19798
15680,31466,-555,-4486,-11073,2565,29128
15690,26122,-6217,1144,-13011,8721,26637
15700,26399,-8084,4139,-12288,11517,23365
15710,31112,-5757,3208,-9181,10425,19690
15720,32748,11216,-10035,-1413,-507,13982
15730,32748,19923,-20058,-1930,-3158,13410
15740,32748,29963,-32748,-8285,-4645,13082
15750,26166,32748,-20765,-32194,-22888,12495
15760,24217,32748,-9231,-32278,-29603,18516
15770,24633,32748,-559,-24521,-32525,20418
15780,24850,32748,8473,-10391,-31843,18390
15790,15395,15188,31037,25205,12944,13188
15800,14892,10442,17201,32747,30056,15087
15810,9130,6818,25869,32766,18884,14289
15820,2003,19602,298,14913,17690,14047
15830,-2529,14111,8486,-5546,4495,11286
15840,-7120,9616,10230,-7687,-1823,10602
15850,-9492,7604,5241,-4086,-1998,9722
15860,-12068,10132,-4368,-3818,-2363,4423
15870,-10011,9673,-6384,-4982,-3199,910
15880,-8177,5387,-2928,-6449,-3142,-10932
15890,-8461,3651,-324,-7416,-102,-16095
15900,-10234,3167,1530,-7922,4531,-19373
15910,-13412,3136,4267,-5977,8702,-19817
15920,-8762,4173,4007,-4083,7098,-16091
15930,-218,4978,3533,-2608,4807,-12384
15940,4766,5324,2426,-1938,4839,-12727
15950,6065,9555,-597,-1854,8629,-18618
15960,7008,12646,-785,-1708,10006,-20989
15970,10286,18251,-641,-1406,10288,-22350
15980,18664,29624,2636,-1672,4535,-28323
15990,19969,31606,4822,-1952,1873,-32155
16000,24161,32748,6068,-1678,3912,-32745
16010,29138,32748,6862,1027,7500,-31046
16020,32748,32748,-814,26900,19970,-9407
16030,32748,32748,-5535,32753,13828,-4273
16040,32748,29477,-11301,32766,1295,-14950
16050,29057,29048,-11872,29229,-4157,-25751
16060,28184,31103,-12133,19659,-9141,-20513
16070,28951,28623,-4989,7511,-10993,-16974
16080,21112,18627,-2714,127,-10585,-10065
16090,16800,15920,-6121,-104,-12066,-7478
16100,13532,14142,-6160,-4024,-12713,-5086
16110,7500,9833,-2550,-13588,-12708,209
16120,4565,4630,-788,-15178,-11357,3389
16130,3600,-1733,128,-15479,-10230,6914
16140,4258,-14649,3202,-18242,-10411,12816
16150,4994,-17727,2792,-20627,-11204,14880
16160,4067,-16822,2128,-22192,-11961,16248
16170,-1825,-13978,-289,-20319,-11515,16262
16180,-2751,-11446,-492,-6129,-8357,13656
16190,-3902,-10525,-30,-1147,-8638,11780
16200,-2562,-9640,1907,1718,-9239,10829
16210,-1977,-7801,10007,6737,5399,5348
16220,3020,1894,19745,10403,11733,1338
16230,6831,14330,12702,17033,6711,-3706
16240,3741,27131,-24243,23059,-9916,-15169
16250,2729,25708,-25488,21559,-11505,-19711
16260,-1174,25160,-26049,19554,-6742,-19906
16270,-625,23524,-27520,13459,-4825,-15737
16280,-31,6971,-5493,-4139,-13042,-9291
16290,25539,-2986,32764,-7991,3074,-5621
16300,15522,-1518,-7676,11025,-4022,-8020
16310,10650,-1378,-10006,4836,-18198,-2330
16320,10918,-1084,-11713,2434,-9065,8893
16330,26570,417,-12527,1516,407,24755
16340,32748,-1416,-8843,-1138,1950,32766
16350,32748,-4734,-5491,-2128,2961,31557
16360,32748,-5939,-2551,-1573,7463,19357
16370,26141,-964,-1070,7001,5922,12121
16380,30475,3017,-5450,12660,6928,17252
16390,31796,7627,-11158,16373,6718,18003
16400,32405,13272,-19974,17139,3979,16147
16410,32748,32709,-32748,2617,-1236,10592
16420,32748,32748,-32748,-9732,273,8094
16430,27615,32748,-28736,-19590,146,8235
16440,14831,32748,-6915,-24897,-19567,16321
16450,13136,32748,12557,-19023,-28209,18578
16460,-1118,25144,32764,-1829,-11733,16941
16470,3372,9775,16963,27319,28026,18643
16480,3357,9777,-2659,32417,26860,16015
16490,-3214,10192,-11393,17303,16796,13431
16500,-4001,5825,2641,-10022,-1509,11204
16510,-11491,8280,-7555,-1598,29,6178
16520,-8017,9041,-7618,-7289,-3150,2813
16530,-8449,7833,-1396,-13196,-7308,-9812
16540,-10587,7504,3101,-12225,-5070,-15120
16550,-14541,6906,8104,-8950,-292,-17971
16560,-2375,5470,8339,1935,6682,-14944
16570,3950,5314,4043,3899,5952,-16239
16580,4765,6158,-2052,1200,6955,-19159
16590,5430,8458,-4672,-5368,6052,-21931
16600,6002,18276,-2785,-15238,3012,-26965
16610,9648,27070,-1528,-15583,4047,-27678
16620,17021,32748,880,-14105,4345,-28405
16630,32748,32748,10421,-6546,2157,-32686
16640,32748,32748,7951,-1025,6482,-32676
16650,32748,32748,7545,5794,15878,-26679
16660,32748,32748,693,21466,30122,-7094
16670,32748,21329,-4867,32766,10418,4057
16680,32748,11117,-9065,32723,-1740,-10758
16690,22728,14351,-18119,16576,-7976,-17132
16700,20735,16432,-11673,4687,-15932,-11555
16710,15925,17551,-2147,-5855,-10753,-5144
16720,13263,14870,-4592,-5117,-9620,-3655
16730,12523,10036,-6034,-5467,-9164,-1407
16740,10613,699,-2628,-11633,-8383,2897
16750,7409,-3482,-666,-13966,-7015,4009
16760,4338,-7606,987,-15461,-5546,5334
16770,2030,-15042,5850,-18091,-5931,9752
16780,591,-16146,7375,-18555,-5306,12648
16790,-873,-15407,6719,-17888,-4673,14324
16800,-4860,-16019,5849,-16210,-4365,14023
16810,-5811,-15601,5157,-8104,-634,10911
16820,-4473,-14172,5030,-5185,1338,9470
16830,404,-9857,4804,-4268,2257,7504
16840,7202,8652,14846,2336,-4024,-1466
16850,7727,19101,5999,10449,-1899,-6359
16860,3123,26149,-8293,18406,-3636,-11958
16870,3070,26565,-20408,24530,-4013,-15774
16880,4446,24444,-27124,19025,1647,-14466
16890,4815,19299,-22969,7412,1535,-12900
16900,5605,13280,-13324,-2924,-651,-11170
16910,22995,6853,20331,-8518,1909,-734
16920,32748,1864,25731,2722,-11470,5923
16930,31829,-7088,10337,15576,-18427,6586
16940,19119,-11805,-7503,12642,5417,12638
16950,29132,-10786,-7642,8569,7902,15756
16960,32748,-3613,-6607,6358,-2723,16632
16970,32748,-1312,-7013,6368,-5348,16077
16980,32748,1201,-6820,5380,-1461,15906
16990,32748,4499,-7478,3904,2991,16828
17000,32748,10980,-10663,2302,6330,17595
17010,32748,15036,-15912,1384,8567,17254
17020,32748,20406,-21834,-2034,11231,16949
17030,32734,32748,-29903,-17433,9277,17301
17040,27060,32748,-22159,-26314,-1770,18211
17050,20229,32748,-13736,-30007,-13415,20945
17060,16446,32748,-7354,-27656,-23317,24467
17070,15756,29983,8869,-10154,-32765,19883
17080,1880,19729,32764,4517,-25283,13372
17090,3597,11252,32764,27527,18289,15214
17100,-1869,10770,19368,32766,29854,14893
17110,-6311,17784,3005,32622,25051,11790
17120,-13288,16648,-4153,22140,16753,7803
17130,-14168,14420,-1996,750,4342,4498
17140,-11896,13654,-7382,-11097,-4516,-1220
17150,-7224,11999,-7393,-10611,-7537,-4908
17160,-6287,5463,82,-9173,-6442,-16292
17170,-9487,3125,3798,-6953,-697,-19974
17180,-12976,1122,7119,-4006,7116,-20380
17190,-5838,1996,4759,1689,14327,-15527
17200,-2223,3957,1709,1724,8494,-16783
17210,154,3299,2199,-349,4013,-19770
17220,2918,3170,909,-2269,5740,-21931
17230,5257,8198,-5002,-5441,9048,-26521
17240,7273,13644,-6582,-7892,7701,-28229
17250,12044,24855,-8829,-10612,6029,-29549
17260,27615,32748,-2975,-15559,3298,-30767
17270,32748,32748,14233,-5679,13662,-20414
17280,32748,32748,22932,21538,29575,-1055
17290,32748,32748,7474,32699,22180,6180
17300,32748,1368,6755,32766,5055,-22315
17310,25777,11024,-5473,32766,15367,-30440
17320,17811,22195,-23839,31524,872,-21439
17330,24346,31990,-5448,-11838,-21271,-8385
17340,22354,24619,3368,-19689,-15633,-5626
17350,17883,15574,1942,-17791,-14191,-3535
17360,10309,4405,-7039,-17998,-15225,768
17370,7878,565,-4479,-23184,-14594,2705
17380,3722,-11354,1733,-29725,-9318,11825
17390,3463,-10698,779,-28885,-8897,12272
17400,1973,-10366,1409,-27323,-7389,11842
17410,-1700,-11964,2859,-18358,-604,8549
17420,-1252,-13448,3813,-13102,2545,7268
17430,-673,-14595,4146,-8409,4836,6253
17440,2631,-16630,5913,-3850,6016,5302
17450,10403,-8394,3966,11129,1249,-1873
17460,10529,-983,1114,19100,-2052,-4555
17470,11598,5787,-5092,25706,-3322,-5257
17480,11196,8882,-11848,29510,-3815,-7459
17490,7840,10912,-13425,27021,-2100,-11246
17500,6020,10650,-10358,21726,1308,-9773
17510,3177,6925,-3855,15349,5058,-6525
17520,5260,6149,7656,20600,27896,-66
17530,9156,11600,-20837,30188,16607,-1300
17540,17202,15710,-21136,19383,-4683,-3151
17550,32748,20258,-17565,-674,-10600,13836
17560,32748,14803,-14473,-4210,-1693,24156
17570,32748,7663,-9587,-6599,1524,25099
17580,21460,-34,-1700,-11794,3327,18836
17590,24856,1747,-479,-13411,4042,18430
17600,31676,4958,-1945,-13669,2114,19176
17610,32748,13967,-10845,-13013,-613,21218
17620,32748,17923,-14743,-14625,1630,19842
17630,32748,23267,-18564,-17540,5212,17911
17640,27279,32748,-23090,-29201,-3162,12823
17650,22668,32748,-9402,-32728,-17320,13852
17660,18285,32748,7125,-31599,-27912,15609
17670,7816,29490,31641,-18122,-28349,16314
17680,1127,15807,13610,29264,19538,22224
17690,-3553,9804,16184,32765,19925,20221
17700,-6489,6567,13300,32319,15890,18607
17710,-9127,11018,2768,19954,15600,15691
17720,-6031,6506,8895,-12775,-3507,9592
17730,-5524,4636,2501,-11184,-5123,8582
17740,-6513,6186,-3881,-8202,-3991,6649
17750,-7122,9498,-4832,-6334,-2928,872
17760,-6345,9220,-3440,-5529,-3522,-2756
17770,-6689,8106,-544,-5011,-3090,-6947
17780,-8964,6731,3545,-4053,-1089,-11358
17790,-11389,6381,9511,1468,9110,-12828
17800,-2481,7942,5410,3313,10570,-11326
17810,1697,8957,-1754,-5877,5156,-16319
17820,4625,10298,-4254,-10842,5201,-18298
17830,5856,14025,-5339,-13377,6343,-21132
17840,12827,27130,-4742,-11960,7714,-27568
17850,17697,32748,-6123,-10617,6253,-28632
17860,23887,32748,-5133,-11441,1323,-28595
17870,28550,32748,-2839,-13269,-2908,-28173
17880,32748,32748,5438,-14667,-5755,-13638
17890,32748,32748,25861,-6849,-2912,-594
17900,32748,25897,11617,17518,7051,1104
17910,32748,2506,-11319,32766,4822,-13238
17920,31544,-2830,-15619,32596,71,-20240
17930,17400,-901,-16314,27191,-6063,-22293
17940,18846,6675,-11520,14209,-10731,-17046
17950,20425,15952,-7019,-2803,-14004,-8704
17960,15865,15653,-8191,-6898,-13135,-6806
17970,10709,11716,-6859,-10398,-12313,-5002
17980,9075,1081,-4738,-15595,-11997,598
17990,7701,-3782,-3247,-17509,-11826,2993
18000,5806,-8635,-1218,-19317,-10470,5058
18010,3848,-14483,-87,-21359,-7953,6827
18020,1407,-22886,3874,-28508,-6834,10802
18030,-905,-23208,6843,-28692,-7589,13002
18040,-4320,-19599,6680,-19183,-2081,14039
18050,-3327,-16765,6754,-13475,698,12473
18060,-3573,-12213,8000,-10324,2546,10352
18070,3489,5757,12334,-2149,-3523,5098
18080,8235,17578,15932,5683,-4818,-288
18090,9094,28920,12700,13936,400,-8847
18100,4428,32748,-4155,18613,1583,-17623
18110,9723,31280,-22698,25690,-760,-20000
18120,10519,17765,-25357,22811,1539,-16677
18130,8407,8791,-19549,16260,2677,-16528
18140,31231,-7705,32764,5169,5239,-10956
18150,32748,-4214,11778,12209,6312,-7526
18160,29371,-2762,-21050,12841,-13036,-4979
18170,16464,-10309,-10052,-6384,-486,4384
18180,20865,-7626,-6351,-9222,1976,6215
18190,28008,-3083,-6876,-5608,1739,10048
18200,32748,707,-9458,-266,-1291,15320
18210,28991,2227,-9769,1443,-7743,18335
18220,32446,3624,-9115,971,-6644,19709
18230,32748,6290,-8798,795,-5173,21554
18240,32748,29319,-12424,-15516,9470,17096
18250,32109,32748,-10985,-17497,3993,17102
18260,25393,32748,-12804,-17565,-5301,18413
18270,18778,29043,-2029,-17793,-28644,21913
18280,16551,26126,3736,-13385,-32600,18814
18290,11819,21943,9118,-6516,-31895,13162
18300,-3236,4178,32764,17050,-360,12544
18310,3021,1938,25645,31438,20011,19477
18320,4184,3743,14693,32647,23535,20002
18330,-8083,9192,1716,12144,10541,15132
18340,-9321,9635,4268,1826,389,13513
18350,-10585,10935,3326,-626,-3791,11291
18360,-12538,14022,-398,1306,-2582,7322
18370,-14003,16394,-3349,583,465,-2060
18380,-12708,14129,-988,-1641,1786,-4848
18390,-9153,11469,2943,-3232,2930,-7348
18400,2296,4848,3924,-6471,3816,-10875
18410,5234,2924,2728,-9091,3966,-12272
18420,6946,3276,1107,-11104,5364,-13178
18430,7121,5958,-1728,-11842,6626,-14505
18440,12979,17677,-4490,-11335,5588,-20275
18450,16553,25189,-5330,-10258,6127,-24308
18460,21515,29324,-853,-8847,4628,-29435
18470,27121,23849,5730,-7468,1007,-29825
18480,32748,22932,13332,-5782,-3314,-31337
18490,32748,26260,11067,-6358,-3309,-32704
18500,32748,32748,11372,-9854,3981,-25409
18510,32748,28947,11421,2182,13024,-11161
18520,32748,23737,-7409,26479,21705,2740
18530,32748,10521,-13897,32094,-3606,-10482
18540,28636,11326,-13106,24502,-4486,-20633
18550,23837,14222,-8785,13052,-2669,-19534
18560,22313,13594,-5179,-225,-9334,-12214
18570,20642,10643,-5184,-3230,-9749,-9835
18580,19063,7201,-6660,-4571,-9365,-7327
18590,12563,823,-6242,-9018,-11228,-3973
18600,9500,-2509,-3037,-10810,-9681,-2317
18610,7246,-5945,-724,-11133,-7521,-562
18620,4994,-10753,1191,-10983,-6319,1166
18630,2092,-18071,3751,-15757,-8144,6374
18640,-551,-19260,7908,-18229,-8747,9079
18650,-1998,-19388,11469,-18812,-4443,10894
18660,-4300,-15698,13092,-14082,3741,7629
18670,-3106,-10819,11529,-8943,3431,5200
18680,1046,-5368,10086,-4975,1253,3868
18690,3064,5820,3212,3553,-599,-1508
18700,2986,12320,-1861,6902,-1544,-3986
18710,4383,21000,-8502,9242,-4648,-6031
18720,9836,28235,-20410,25016,-2802,-14267
18730,11606,24150,-23598,28902,2501,-18597
18740,11280,19695,-9755,24882,6908,-19433
18750,32700,21940,15100,23614,14550,-15664
18760,23310,2139,-15499,24419,3342,-8213
18770,11131,-6555,-14875,4984,1587,-196
18780,15240,-9839,-9629,-6406,-584,9516
18790,32748,-7445,-7303,-9443,-2093,22537
18800,32748,-5821,-8236,-5809,-3487,22501
18810,29689,-4085,-12759,-2156,-1726,16718
18820,28563,-1157,-12538,-4181,-2149,17232
18830,32748,4056,-11580,-6557,-910,20411
18840,32748,9050,-10674,-8352,-1166,20755
18850,32748,12819,-9724,-8847,-957,19091
18860,32748,22704,-10957,-8172,2439,17366
18870,32748,28886,-8291,-8647,2452,17042
18880,31655,32747,-7268,-7950,1713,16824
18890,20272,32748,-3316,-8041,-3443,18203
18900,15974,30831,-106,-6739,-9708,18206
18910,-7870,19522,32049,-3020,-16735,16619
18920,-8865,14072,32176,22079,-5621,21086
18930,1917,15584,14618,32592,14977,27142
18940,-917,18754,2247,29082,23557,22272
18950,-8629,15181,7964,-3762,3692,13308
18960,-7219,12271,9680,-6995,-2579,11629
18970,-7516,11074,3179,-2613,-1237,7885
18980,-10741,9948,-3409,1526,5001,-366
18990,-10891,11171,-3785,735,5887,-3512
19000,-11403,10057,-2761,-696,5282,-6270
19010,-11379,8391,-517,-2256,4606,-7979
19020,-5837,8320,1999,-4121,5637,-10706
19030,-2079,7915,-345,-5487,4719,-13168
19040,1093,8847,-2059,-7865,3721,-15607
19050,8406,15213,-3442,-11584,6019,-21233
19060,12506,21281,-3195,-11583,6900,-25369
19070,15852,27668,-3363,-10532,6801,-29313
19080,19992,32613,-3791,-9196,5291,-31520
19090,30800,30818,2784,-8572,-4500,-32765
19100,32748,32732,7677,-8353,-8664,-32252
19110,32748,14788,-4979,26613,18826,3235
19120,28376,5209,-14752,24720,-1036,-15749
19130,21009,11485,-11137,11944,-7010,-20130
19140,22598,18363,-8114,2914,-8778,-16777
19150,20981,20958,-6747,-4059,-12441,-13690
19160,20795,16919,-6923,-6384,-11312,-11350
19170,19640,11231,-7349,-8446,-10982,-8051
19180,12866,3593,-9906,-12913,-14055,-2670
19190,10320,514,-8540,-16465,-14318,-1221
19200,7567,-3229,-4674,-19236,-12833,63
19210,4697,-7640,-1680,-20340,-10928,1776
19220,2037,-16957,-195,-23950,-11696,7463
19230,1088,-18353,390,-26390,-14491,10521
19240,264,-19375,2509,-27545,-13918,13308
19250,895,-18148,6819,-27065,-3296,13702
19260,333,-18022,7910,-23604,184,11386
19270,1631,-15355,10447,-19213,1516,10026
19280,4067,-9491,11831,-14963,-774,8417
19290,9328,2896,8057,-4882,-9089,5513
19300,9534,10889,4352,-206,-7027,1961
19310,9064,19139,2357,6458,-3297,-3587
19320,8169,20870,-2250,27279,8246,-15201
19330,8992,17194,-13009,32498,15642,-17513
19340,14345,8538,-15377,26933,13693,-13537
19350,21634,7171,-8927,19232,10497,-7173
19360,32748,9888,-4913,15220,6470,170
19370,32748,7650,-11104,14486,-3250,3720
19380,8081,-4643,-4869,-141,-2514,1850
19390,2040,-4695,-3305,-7638,3875,6146
19400,3526,-2344,-4493,-11801,5992,8984
19410,27305,10449,-9759,-15328,-7058,12833
19420,32748,16944,-11617,-17275,-10460,16348
19430,32748,22710,-13372,-19345,-11518,18471
19440,32748,23709,-13203,-21701,-11470,17833
19450,30964,18883,-7467,-24565,-13152,16111
19460,26768,21028,-6537,-22630,-18613,19729
19470,25315,21629,-2696,-21556,-23930,20218
19480,22405,22215,13316,-19281,-26571,20300
19490,21463,18168,7136,5272,-6428,20519
19500,19863,16319,4376,7609,-6896,18272
19510,16476,15092,3900,3526,-5164,17740
19520,12629,13887,4441,-3751,-3165,18144
19530,3434,10306,17996,-9886,-5696,14714
19540,-1164,9179,23306,-5723,-5760,11924
19550,-8266,9675,16163,-546,-918,5155
19560,-7693,8287,7818,-3524,2406,1584
19570,-5770,6647,917,-5271,4197,-1275
19580,-2069,5473,-5525,-4561,-493,-7054
19590,-1327,5378,-5541,-4702,-5724,-12094
19600,-3380,4994,-2564,-6220,-7580,-18006
19610,-6395,6052,5558,-7475,-2438,-22095
19620,-4962,12512,18032,-466,26078,-18946
19630,3216,12712,8028,5859,27920,-14819
19640,7864,10698,-1662,7274,22637,-14828
19650,9926,11767,-7539,4169,20558,-17570
19660,19489,23157,-10053,-4982,16211,-26181
19670,22211,31544,-11206,-8435,12073,-31326
19680,19872,32748,-11649,-11078,6984,-32759
19690,19985,32748,240,-7217,-1715,-21177
19700,25585,32748,-406,7286,5908,-9537
19710,32748,28392,1085,21776,11046,-5360
19720,32748,20538,11,31484,8705,-11554
19730,32748,16060,-13289,32766,1579,-23303
19740,32456,20103,-20799,30584,-10933,-18297
19750,30759,23451,-15616,-2274,-27647,-10335
19760,29199,20456,-12532,-10500,-25562,-8566
19770,26427,14159,-9794,-11675,-22361,-6741
19780,24393,6804,-6761,-10212,-20619,-4587
19790,18105,-3602,-2365,-9638,-20589,-2354
19800,14252,-6157,900,-11934,-20890,-875
19810,10837,-6318,3067,-14492,-20476,1850
19820,7475,-6192,11892,-22688,-18157,9247
19830,6645,-2923,16716,-27333,-14277,12502
19840,4985,966,15560,-29365,-12558,13872
19850,2563,2298,11512,-29335,-12046,13895
19860,3738,1959,3486,-26970,-12042,13927
19870,3593,973,692,-25333,-11553,12333
19880,3957,44,93,-22497,-11227,9217
19890,6561,254,-2320,-9897,-5107,2598
19900,4645,1238,-2202,-759,-1652,-1810
19910,3330,1608,-5059,11973,180,-6313
19920,456,3342,4283,28652,5057,-13335
19930,-3755,10442,-9657,32461,7315,-14456
19940,-1508,12926,-27385,31739,-3092,-13271
19950,865,13807,-32246,21204,-9293,-12233
19960,1472,15682,-14172,-8692,-12236,-10749
19970,16418,-2589,-16867,6351,-2644,-8993
19980,23035,-4889,-11894,-14769,-12562,14961
19990,29780,-7186,-9816,-16400,-7520,22355
20000,32748,-10769,-8314,-15032,-1922,25776
20010,32748,-16192,-1715,-12534,8322,18044
20020,30647,-14112,2203,-8292,6982,12005
20030,31829,-8796,3514,-558,2797,11134
20040,32748,2318,-3865,12601,-63,14192
20050,32748,7365,-9386,14792,-957,13785
20060,32748,13105,-17807,13276,-510,12809
20070,32748,22962,-29453,6213,1034,12019
20080,29459,32748,-30567,-24997,318,10704
20090,22540,32748,-15710,-32530,-10903,15098
20100,21986,32748,-3320,-32734,-25347,19951
20110,750,32743,32764,6357,-16457,21302
20120,8449,26788,6766,32229,13629,24911
20130,4227,17791,8242,32766,14729,20189
20140,-3617,19797,-1291,31333,20896,17817
20150,-1871,17392,7193,-17379,-6560,15728
20160,-1376,15638,15474,-24875,-17021,14851
20170,-3145,12105,15894,-17783,-14051,13000
20180,-7939,5023,4808,-5024,-3738,5017
20190,-9158,4255,-854,-6955,-301,903
20200,-8277,4086,-4593,-10111,-49,-1976
20210,-4980,4315,-3897,-13703,-4880,-6784
20220,-4789,3855,-733,-14133,-5516,-9728
20230,-7128,3394,3663,-13540,-3258,-12221
20240,-8909,3505,9581,-11171,1859,-12654
20250,4737,6712,6603,-1030,8018,-10767
20260,6286,8705,-198,119,9313,-12683
20270,7393,11908,-3898,-2331,10580,-15003
20280,13037,22507,-5479,-5500,11960,-17516
20290,14552,27858,-6733,-8994,12695,-23977
20300,14892,31593,-7951,-10410,10145,-26315
20310,16456,32252,-5408,-12725,5412,-27323
20320,23497,32748,5754,-11191,-738,-27234
20330,31547,32748,13951,-3526,3052,-22588
20340,32748,32748,7935,14171,14999,-12736
20350,32748,21947,-6990,32765,8794,-2409
20360,32748,13257,-15319,32766,-167,-12781
20370,30842,12533,-20546,31553,-5194,-19906
20380,23604,17220,-22326,22478,-11679,-18141
20390,23432,23099,-9746,1488,-16105,-12666
20400,22908,19312,-6192,-1607,-14648,-10547
20410,21536,10421,-9111,-4086,-16276,-5185
20420,19017,7318,-7270,-9000,-16910,-2864
20430,15993,4358,-4241,-14144,-16945,-1007
20440,13354,2068,-2236,-18179,-16954,881
20450,8198,-5365,4192,-22682,-16498,4197
20460,7345,-10987,6643,-23762,-16434,6137
20470,7574,-15552,6918,-24344,-17363,8897
20480,5318,-16658,10114,-27657,-14840,13749
20490,3899,-14778,11637,-28236,-9665,13732
20500,2554,-12563,12471,-25127,-3949,11708
20510,57,-8094,10769,-11672,799,6308
20520,-320,-6589,9438,-3811,-1215,4942
20530,-305,-3328,4490,5008,-2785,3316
20540,-962,4047,-4962,13467,-4376,1195
20550,2255,8972,-1773,24856,-6865,-3013
20560,5930,16698,-5020,28451,-3418,-6236
20570,3942,23683,-11904,29381,-838,-11217
20580,4451,27979,-28139,24305,837,-15396
20590,5256,27761,-29171,17037,-3681,-17602
20600,4376,27445,-22974,8346,-11180,-19062
20610,32748,24094,32764,5210,13107,-11612
20620,21551,2120,-3475,10151,16152,-16377
20630,11071,-6979,-18061,-10440,-9563,-11430
20640,14841,-11795,-4315,-18387,480,11032
20650,26040,-9629,-7876,-9291,9846,20548
20660,32748,-8147,-9613,-1640,9770,28839
20670,32748,-8505,-9113,5424,2899,24196
20680,31843,-5029,-8305,6726,-3242,14352
20690,30796,-1644,-6074,6181,-5920,13583
20700,32748,7817,-5697,4946,1449,16666
20710,32744,10429,-8199,3728,3791,15338
20720,32748,14611,-12398,2044,3672,15271
20730,32748,20650,-16777,-1481,3706,15289
20740,32742,32748,-20786,-15186,2919,13429
20750,25649,32748,-16170,-21659,-5632,14139
20760,22273,32748,-9865,-25366,-15360,17449
20770,16588,32748,15146,-25560,-31885,19305
20780,-3542,26525,32764,-145,-24722,17630
20790,9750,21314,21142,30162,9175,22136
20800,8378,14897,8453,32766,21734,18627
20810,-5644,11939,-837,3720,11025,12470
20820,-2025,9962,10699,-12897,-5585,12053
20830,-7894,8940,-7719,-4803,-3423,1361
20840,-7102,9733,-4090,-7746,-5728,-3436
20850,-8184,9277,-520,-7481,-7088,-10832
20860,-14536,6976,5406,-2249,-2041,-22206
20870,-18370,6267,8624,1111,4577,-21364
20880,-9940,7655,7337,4669,10902,-16744
20890,836,9492,2374,6018,11429,-14724
20900,2960,10700,-5907,-2502,7871,-20636
20910,4148,14726,-5728,-8030,6589,-22067
20920,5825,19717,-4652,-11615,6584,-22801
20930,14301,31812,-2187,-12812,8092,-22997
20940,20943,32748,2077,-10779,6437,-23579
20950,30660,32748,10314,-5622,4842,-23413
20960,32748,32748,19854,5429,8467,-20232
20970,32748,26677,2975,32650,25323,-70
20980,32748,15565,2057,32766,12792,-1551
20990,32748,4431,-7424,32766,4777,-14189
21000,22039,8485,-13066,23381,-5286,-17244
21010,20493,15029,-15253,12240,-13062,-12328
21020,20625,21011,-11044,2017,-17922,-10071
21030,18504,21062,-4782,-4835,-13112,-6529
21040,16138,14607,-6365,-3996,-12258,-4223
21050,13956,8768,-5856,-6220,-13104,-1736
21060,8166,1365,-2751,-13536,-13389,1905
21070,5309,-1636,-1402,-16983,-12677,3334
21080,3033,-4219,642,-20514,-12380,5291
21090,789,-7152,4799,-24633,-11869,9957
21100,670,-8280,4371,-23218,-11147,11473
21110,1574,-8940,3359,-21655,-9553,12244
21120,4520,-8590,2422,-19182,-5199,10915
21130,4386,-8345,1048,-16390,-2751,8706
21140,3516,-7806,1049,-14316,-1850,6220
21150,3134,-5062,5029,-9504,-4158,-50
21160,5545,385,5638,-989,-5435,-2438
21170,8574,7268,8432,9576,-6368,-4443
21180,7480,14317,6891,20364,-3618,-7688
21190,-611,18620,-11081,31169,-846,-11351
21200,705,16551,-17463,26700,-188,-9335
21210,1741,11089,-17177,17536,842,-8157
21220,3374,599,1199,1672,-1886,-5055
21230,24144,-639,32764,210,3415,-1008
21240,28814,12932,-5024,15910,-898,-1361
21250,32748,25271,-30925,19366,-16275,-3246
21260,32748,6523,-16439,-884,-69,6380
21270,27159,-2114,-4953,-6948,10135,3672
21280,30334,-9155,1869,-5974,1014,16735
21290,32748,-9405,2815,-5822,-4123,21996
21300,32748,-7804,4043,-7553,1127,20213
21310,32748,399,496,-2756,8399,18807
21320,32748,4625,-1985,1734,8243,20432
21330,32748,8945,-6342,5744,7779,20068
21340,32748,14385,-13830,8343,6701,18333
21350,32748,28073,-32464,-1405,2933,13100
21360,31149,32748,-28446,-13789,719,12472
21370,24016,32748,-23362,-22780,-2867,13135
21380,16091,32748,-6705,-28022,-22159,17154
21390,15240,32748,3627,-23711,-30431,16805
21400,9913,26774,22513,-14188,-31315,12590
21410,-4097,12678,32764,5415,-7029,10991
21420,4607,8227,15339,32766,25838,17794
21430,3977,7786,10061,32750,17056,15574
21440,-714,11694,-2059,25248,19927,14564
21450,-3530,5543,10821,-9366,524,9738
21460,-6008,3845,4843,-6949,-1016,8848
21470,-8001,5994,-8898,-1992,1588,7574
21480,-6515,10076,-11033,-6100,-4445,-223
21490,-5884,11343,-6220,-8865,-8228,-6821
21500,-9243,11319,720,-9358,-9066,-15078
21510,-23952,7992,15455,-578,5585,-21660
21520,-18455,6883,6867,7811,16013,-16374
21530,-5923,8458,-983,9920,16403,-12899
21540,1783,2985,-2021,-3904,7045,-17568
21550,2776,4241,-3396,-9507,6539,-19926
21560,2823,7245,-4060,-12462,7185,-22177
21570,4548,20980,-7181,-13126,10467,-23557
21580,8815,31492,-8489,-14859,9406,-22819
21590,16881,32748,-6403,-17258,4752,-22178
21600,26179,32748,-642,-18287,-2245,-22744
21610,32748,32748,20371,-5058,-8603,-17768
21620,32748,32748,18565,14446,2155,-8041
21630,32748,30155,1975,31500,19991,3733
21640,32748,13980,-2416,32766,14452,3455
21650,32748,-3424,-8566,30964,159,-18511
21660,24355,2029,-11856,18796,-5061,-18125
21670,23779,6402,-12311,3426,-12795,-11755
21680,24722,11995,-6199,-9074,-18578,-6714
21690,20264,15444,-1879,-14472,-15942,-4439
21700,9859,-9461,765,-13434,-7559,3820
21710,6113,-13318,1625,-15574,-6411,5675
21720,2797,-15268,4238,-18210,-7097,8113
21730,-3870,-16031,12077,-21310,-2594,12023
21740,-6786,-17829,13563,-17637,2739,12509
21750,-7972,-15553,10739,-11440,7609,12794
21760,-6769,-9405,8623,-7506,7249,12241
21770,-2217,-1334,5355,-7936,-1911,10268
21780,-534,4157,3770,-6441,-7042,7723
21790,2119,13386,3078,-3025,-11163,3818
21800,4988,24022,-1092,178,-11719,-3075
21810,2613,32748,-4474,8226,-7989,-19872
21820,3215,32103,-7590,16615,2055,-19611
21830,8354,20800,-18961,22513,6914,-16111
21840,6732,3406,-12046,11559,2779,-15667
21850,2454,-4134,-5196,4875,5670,-13192
21860,30289,-25828,32764,-726,1655,-6295
21870,32748,9320,-30694,2279,-23132,2705
21880,32748,20057,-32748,6499,-8287,8957
21890,32748,9974,-32748,-10481,-13061,6678
21900,17221,466,-15196,-20287,-18316,-2505
21910,-4293,-8648,6033,-12456,2171,470
21920,723,-10259,5657,-5373,16197,6903
21930,29157,-3436,10870,7817,12971,12510
21940,32748,3956,17124,16429,1268,12036
21950,32748,12206,5610,27237,-6651,10671
21960,32748,22133,-23470,32470,5553,10819
21970,32596,26611,-31709,16719,15509,11549
21980,27396,30637,-32443,-1156,18682,12839
21990,23403,32748,-23710,-18933,12831,14265
22000,16515,32748,-65,-32669,-8661,17285
22010,2505,32748,32764,-26153,-16110,19647
22020,10933,32748,11323,-2168,-6135,25641
22030,6964,21143,-5264,-4982,1963,19072
22040,7042,16046,-1147,-15856,-4260,16072
22050,8130,12049,1436,-21687,-9201,14556
22060,7752,10467,4619,-23145,-11899,13249
22070,1694,7404,9530,-15669,-9582,11347
22080,-2791,4015,10867,-9585,-6461,10888
22090,-7338,1312,10482,-4582,-1963,10841
22100,-8488,2378,1674,-1951,4831,9698
22110,-7834,3764,-2590,-4422,4638,6580
22120,-7227,4085,-2440,-8247,2380,2427
22130,-7127,2277,3261,-12609,1134,-5060
22140,-3129,1836,7111,-11825,3716,-7398
22150,6058,274,8842,-6273,8910,-9740
22160,7889,-71,8559,-4002,11433,-10055
22170,9334,462,6904,-2090,15153,-9861
22180,7166,3470,1201,-263,21387,-12425
22190,5754,5974,-1719,2524,22400,-14624
22200,6293,8506,-3683,3028,22632,-17109
22210,10174,12469,-5459,3340,22200,-20195
22220,24072,30623,-12859,2904,17069,-30780
22230,24555,32748,-12643,-1989,7621,-32746
22240,23272,32748,-15450,4724,10789,-26807
22250,27169,32748,-13211,14340,8349,-9829
22260,32748,27180,-11442,31250,-7006,-3732
22270,32748,21599,-9688,32764,-11256,-9886
22280,32748,17203,8795,32766,-11422,-15888
22290,25324,22413,-13318,32766,-7301,-18385
22300,24386,23595,-16151,8106,-21252,-6300
22310,24842,20540,-10226,-13535,-26468,-2199
22320,24282,14959,-6896,-23383,-23836,92
22330,21117,2857,-7726,-25360,-20861,2947
22340,19584,-1929,-6145,-26062,-21271,4344
22350,14104,-9442,281,-29162,-18979,5890
22360,11213,-11974,4141,-30399,-19319,7469
22370,10154,-13743,9760,-31587,-19318,10039
22380,8407,-8995,19106,-32766,-13194,13280
22390,5521,-2585,17563,-32766,-10254,12223
22400,2885,69,13277,-32758,-8960,10788
22410,2120,-186,11039,-31152,-9436,9560
22420,1668,470,1699,-19322,-10957,5772
22430,1578,260,-1198,-14550,-10127,2796
22440,1833,261,-2867,-9613,-7143,-80
22450,1721,688,-3839,2967,-3015,-4539
22460,3214,1505,-5362,11055,-422,-6424
22470,3060,1394,-7596,18374,2998,-9031
22480,1379,971,-7683,23327,3838,-11853
22490,-416,-185,-8438,25564,1513,-13179
22500,-1245,-1329,-9220,22181,2167,-11920
22510,-1669,-1580,-7929,16144,2401,-9164
22520,8595,3631,-5303,4307,-3714,-882
22530,20598,10076,-6027,304,-7509,4597
22540,32748,18939,-8083,-2660,-14669,11925
22550,32748,22691,-8972,-4512,-24047,18309
22560,32748,7759,-1627,-6739,-17778,10394
22570,27464,10653,-1035,-717,-208,14065
22580,32748,18120,-9167,-5126,-4946,14633
22590,32748,21227,-10793,-11308,-1446,14095
22600,32748,23887,-10099,-17306,-551,13506
22610,32748,25656,-9747,-21251,-2560,13547
22620,24247,24038,-7158,-25528,-12049,16869
22630,21448,23005,-4207,-26175,-17851,18260
22640,18836,21401,325,-24847,-22909,18427
22650,11682,13333,16624,-11425,-20403,17182
22660,12974,8658,17234,533,-10949,18954
22670,13444,7525,4701,10543,-2774,18957
22680,11367,7751,-716,11609,-546,16297
22690,3934,11128,11609,4378,-2660,12999
22700,-13,12440,16209,2826,-2833,12455
22710,-4542,13449,15173,899,-755,10978
22720,-8544,9314,6517,-6939,-1082,7757
22730,-7628,7332,2007,-9547,-1682,6347
22740,-5730,6460,-1188,-10230,-2127,3574
22750,-4775,5736,-3180,-10198,-2374,-1002
22760,-8498,3776,-2607,-11259,-3624,-12578
22770,-12884,2451,4786,-12617,-2169,-15359
22780,2560,1019,15044,-7980,9393,-8540
22790,8592,521,9635,-4716,11682,-8334
22800,8811,1329,4275,-3844,12798,-10464
22810,10779,9719,-2165,-3681,16253,-14366
22820,15537,15884,-4510,-3205,17828,-17724
22830,22775,23837,-6146,-3187,17533,-23012
22840,28321,32748,-10189,-5458,14165,-32679
22850,22319,32748,-7420,-8211,10111,-32584
22860,20009,32748,-913,-9201,7199,-27325
22870,23540,31737,7636,-4058,8609,-17174
22880,32748,26171,274,28239,17621,-5933
22890,32748,20670,-2355,32747,3162,-12073
22900,32748,15762,-8367,32766,-4443,-19015
22910,27700,19821,-13163,22101,-4352,-17617
22920,24437,25137,-12165,10009,-12186,-14192
22930,22518,26418,-10426,61,-17279,-12378
22940,22405,22328,-9657,-6097,-16863,-10809
22950,24005,10862,-11361,-9259,-15259,-5527
22960,23243,6326,-10004,-10603,-15618,-3452
22970,21985,3043,-7945,-12324,-14449,-1919
22980,13930,-1398,302,-13856,-12983,-459
22990,11177,-4500,4516,-13814,-12053,1227
23000,7569,-11325,7761,-16576,-14301,6185
23010,7857,-12237,11495,-20406,-15472,9834
23020,6908,-7617,15525,-24530,-12311,12351
23030,3480,-378,15807,-25679,-8993,12161
23040,-2031,3054,6880,-18811,-6142,10211
23050,-1988,2691,4936,-16019,-6208,9325
23060,-2188,2621,2685,-12149,-6757,7722
23070,-2878,2109,-2463,-3874,-7984,2233
23080,-2537,2939,-4723,-299,-6939,-433
23090,-2647,3145,-4063,3918,-6282,-3145
23100,-735,3900,-1773,10303,-5382,-5577
23110,2826,11918,-6762,26335,50,-11548
23120,1861,13831,-20976,30377,595,-14209
23130,1663,10289,-21904,25593,-1858,-14003
23140,1249,-241,-6691,8691,1426,-6557
23150,5549,-187,-1410,3288,3059,-978
23160,20699,6089,5709,1125,-3402,3462
23170,32748,32748,18466,5294,-27211,-2398
23180,32557,24378,-8768,5354,-577,-9580
23190,14654,4288,-9514,-2349,2531,-6830
23200,6984,-5395,-6381,-9413,-1814,-894
23210,10237,-14612,-1577,-13686,2740,13842
23220,24302,-15045,-1824,-11348,4975,18975
23230,32748,-5083,-5411,-697,761,14612
23240,32748,651,-5274,4271,-5146,12146
23250,32748,5682,-9304,9073,-8595,12558
23260,32464,10367,-19615,6282,-4907,14424
23270,28974,13645,-21432,-67,-1898,15327
23280,27763,18230,-20606,-7221,325,16825
23290,27980,24287,-15925,-13719,1185,18317
23300,28548,32164,-12588,-18544,-5450,20684
23310,26398,32660,-6882,-19696,-14894,21134
23320,22866,30774,858,-18786,-21881,21837
23330,20758,25516,6907,-13226,-24654,23544
23340,17317,17280,16865,7766,-21734,21959
23350,11676,5461,32764,20718,-12138,20118
23360,11583,11632,31963,32263,13968,19558
23370,-3677,18697,375,21973,21944,9872
23380,-8035,15346,3777,13919,12583,7158
23390,-9261,15658,3774,11411,9055,5898
23400,-9819,15406,-5412,8286,8712,2621
23410,-8036,12599,-11571,-5300,-1707,-3249
23420,-5064,11514,-9014,-10282,-7049,-6735
23430,-16908,4679,11391,-12571,-2138,-19342
23440,-984,1740,10947,-3156,10054,-10700
23450,6199,825,10546,-1282,9924,-11147
23460,8283,357,6891,-654,12472,-12432
23470,9965,4715,-1753,-1217,18401,-13356
23480,11325,9578,-4900,-1617,19206,-14898
23490,15668,17512,-7535,-2672,18111,-17397
23500,27611,32748,-11658,-8827,10017,-25829
23510,30076,32748,-8418,-13423,3937,-29151
23520,29984,32748,-753,-15067,48,-27877
23530,32748,32748,10440,9716,18099,-2088
23540,32748,28213,7900,28783,23067,9172
23550,32748,21228,6102,32765,4474,1522
23560,32748,12137,-1970,32766,-9981,-14946
23570,25497,14357,-22701,28734,-4221,-18545
23580,25064,19477,-15015,9834,-12182,-11806
23590,25361,21438,-5461,-6054,-16382,-8232
23600,19672,12420,-3393,-10669,-12206,-4822
23610,17131,5876,-5780,-9774,-12266,-2771
23620,15849,1081,-7182,-10978,-13411,-330
23630,14720,-6119,-2637,-13900,-14083,1657
23640,10350,-8484,1014,-18293,-12480,3805
23650,7619,-10796,3026,-18951,-11535,4769
23660,3079,-14184,6731,-21174,-13303,8557
23670,1111,-15819,10595,-23376,-11031,11238
23680,-1209,-15665,13615,-25825,-4525,12746
23690,-4097,-12736,14890,-22666,2968,10219
23700,-3452,-9938,13947,-15652,2069,8189
23710,-3029,-5088,7627,-6201,-128,6670
23720,-1749,3387,-2665,6381,-10136,2685
23730,-154,9523,-5558,10259,-12932,-330
23740,3641,18218,-5425,13961,-10738,-4549
23750,3949,26801,-9790,17363,-6451,-11394
23760,-1044,25456,-7342,25827,4804,-19624
23770,1441,15991,-12191,28631,8797,-15299
23780,5133,7150,-16483,24953,6952,-11114
23790,4301,-2378,-4210,7519,4906,-6479
23800,27657,-5423,32764,1891,1948,-2018
23810,32748,5448,6172,7247,-23092,-1012
23820,32748,24641,-32582,7592,-32035,-3740
23830,20876,6754,-14246,-18059,-7683,-1885
23840,5507,-2457,-3786,-19217,795,-3112
23850,-1453,-9404,-207,-16381,7354,-1208
23860,19964,-10392,-1179,-6330,10120,8148
23870,32748,-4878,-3777,-1063,3387,11647
23880,32748,4146,-1966,4724,-9271,14102
23890,32748,7742,-4335,7998,-4809,14385
23900,32748,10418,-9857,9127,2688,13077
23910,30608,13651,-16716,7036,6697,11623
23920,26117,24042,-22929,-7678,2842,11012
23930,24025,28643,-16086,-15595,-1107,12210
23940,21321,30921,-10522,-18222,-3382,14732
23950,20853,32459,-3066,-14521,-12394,19735
23960,19318,31583,3322,-10467,-16270,18532
23970,12587,26016,18826,-3171,-15132,16096
23980,14178,19237,28515,11563,-3122,17541
23990,14484,15545,6068,31719,11677,16714
24000,8722,17775,4837,25464,13880,15661
24010,2270,20684,3221,14498,13143,15658
24020,-5742,14694,12172,212,-3892,13031
24030,-9119,13045,10568,212,-5717,10444
24040,-10805,11959,3946,-1599,-3290,7625
24050,-9937,9957,-6004,-8449,-3892,1357
24060,-7842,9254,-6262,-10933,-5653,-2249
24070,-6366,8357,-4497,-13131,-6836,-7111
24080,-9892,4731,3821,-14367,-3321,-18373
24090,-14285,3308,10080,-11850,2829,-20158
24100,-9119,3822,11682,-6691,10477,-16871
24110,5646,6169,4698,-97,9438,-15349
24120,6572,7435,1611,-1402,9632,-18010
24130,8413,10230,-5,-3254,12049,-19778
24140,13862,18464,-78,-3487,14569,-24652
24150,15552,22152,820,-1732,13671,-27967
24160,16905,24715,3300,558,11331,-30550
24170,20973,26746,5834,3704,9390,-31765
24180,31324,32514,6724,11837,13004,-32508
24190,32748,32748,-509,22087,20524,-26537
24200,32748,32748,-12852,31657,23468,-11454
24210,32748,25234,-15808,32766,-4946,-13420
24220,30680,25636,-15763,32763,-2171,-23789
24230,21045,29860,-9892,28956,-4169,-21775
24240,19153,31471,-3678,14605,-8987,-15438
24250,15930,25593,-7456,-6996,-16260,-9072
24260,16335,20280,-9219,-14047,-17641,-5675
24270,15145,15332,-9876,-19979,-17286,-1880
24280,12333,3625,-5402,-26332,-13891,3067
24290,4030,-16290,2268,-23018,-12136,11445
24300,4101,-20534,3775,-22033,-13596,13793
24310,1643,-20626,8830,-17615,-13507,17730
24320,-432,-18638,5079,-7669,-9202,18576
24330,407,-16002,2315,596,-7043,18540
24340,4671,-6056,902,7705,-5430,13534
24350,4553,-2892,777,10019,-2870,9705
24360,4770,1144,1899,11017,-1012,6207
24370,7501,6871,7792,12758,-2267,1990
24380,11093,27925,724,23993,4536,-9083
24390,1691,32748,-13396,28187,1141,-16001
24400,86,32748,-23300,30635,-4320,-17715
24410,3126,20077,-25336,18593,583,-12780
24420,2445,11222,-12797,8585,-984,-13456
24430,5894,2808,12775,2495,2294,-11664
24440,21272,1963,-12660,12274,8497,-4508
24450,16119,184,-17823,2333,-17553,-3819
24460,12336,-1974,-12816,-5991,-6283,2603
24470,22059,-2170,-8292,-5833,5252,11674
24480,32748,-2164,-9375,229,9710,22543
24490,32748,-971,-8415,2563,7001,24806
24500,32748,1232,-8548,3519,3269,20725
24510,27654,3609,-6009,148,-3743,12304
24520,29444,5732,-3794,-1367,-321,15345
24530,31953,8326,-2375,-922,4313,17282
24540,32748,12692,-8453,4903,6959,15967
24550,32292,16119,-13284,6092,5368,13777
24560,30656,21782,-18159,4208,5071,11687
24570,26638,32748,-23385,-6895,1260,8949
24580,22955,32748,-21394,-12878,-7027,7985
24590,18387,32748,-11664,-16788,-16727,8705
24600,14341,32748,-1371,-15024,-24631,9262
24610,-7197,19795,32764,13011,1835,8674
24620,-1123,13882,18894,31250,30727,16398
24630,-271,9724,15462,32766,31773,17831
24640,-706,11674,764,31857,25307,16127
24650,-4848,14036,5308,-7509,421,11828
24660,-4270,13761,9100,-10249,-4951,11104
24670,-6806,11351,5139,-3197,-2642,9055
24680,-11686,9420,-2859,-1048,593,5072
24690,-12379,9172,-4213,-4262,-266,3406
24700,-11283,9194,-4672,-6929,-2884,1020
24710,-8101,8493,-1702,-8871,-6549,-8286
24720,-9635,7449,1870,-8940,-4480,-13668
24730,-12072,4036,4936,-5995,4225,-16158
24740,-4554,4896,2245,-4445,4154,-14234
24750,696,6279,-869,-5025,1697,-14564
24760,2265,7784,-3234,-7426,740,-17173
24770,5399,16442,-4243,-12015,1902,-22518
24780,8714,24576,-4929,-12774,2545,-23774
24790,14075,32634,-5856,-13332,1879,-24362
24800,29884,32748,-807,-16516,-4400,-26925
24810,32748,32748,5209,-16873,-7033,-25215
24820,32748,32748,32764,-12839,-5902,-12951
24830,32748,17900,7096,9317,9329,-3022
24840,32748,-693,-5739,32766,19061,1731
24850,32748,-9310,-9118,32765,13479,-11873
24860,27683,-4232,-15008,29834,6058,-20596
24870,22107,10069,-6276,7413,-9496,-11728
24880,20552,14173,-2016,3049,-10080,-9055
24890,17724,16393,-2082,3336,-10663,-7489
24900,12228,8031,-4510,5800,-6896,-4838
24910,11095,3770,-5765,4944,-5797,-2267
24920,9287,-480,-3525,1443,-6414,47
24930,6856,-5208,-248,-2692,-6497,2167
24940,4086,-13127,11,-9716,-5885,6666
24950,1493,-15030,4907,-13685,-3540,8862
24960,-7439,-19872,13814,-14509,7464,12400
24970,-8851,-16928,9207,-7356,11332,12927
24980,-10128,-10630,5303,-2167,7987,12172
24990,-4895,617,2399,-1282,-5870,10512
25000,1662,20608,4545,4670,-8984,2822
25010,3857,32708,-2127,10785,-9769,-6086
25020,1117,32748,-6746,16505,-10300,-17085
25030,-2052,32748,-10161,22808,-3412,-23691
25040,7041,16780,-11914,26445,3444,-14104
25050,8428,6710,-12323,20455,351,-11635
25060,6803,-1064,-7673,10426,228,-10228
25070,26079,-15676,32764,-15962,1825,-1591
25080,32748,-6166,24673,-20070,-10979,1031
25090,29424,4259,-14056,-11889,-16278,209
25100,32748,4869,-22240,-6551,-5201,6319
25110,31581,-819,-14277,-3464,-3602,3708
25120,28084,-3675,-10827,1185,3910,29
25130,32043,-3906,-11080,6656,8688,2571
25140,26521,-1532,-6554,11093,386,8638
25150,25482,-458,-4750,11176,-1415,9711
25160,32748,8685,-10887,13492,8027,14123
25170,32748,17731,-22065,8567,9954,12400
25180,32748,24262,-24499,1794,8604,12194
25190,30641,30380,-22372,-6053,5559,12502
25200,22069,32748,-16275,-15960,-5453,15794
25210,20432,32748,-9322,-18502,-15656,16987
25220,19094,32748,358,-17084,-24823,14845
25230,-5443,21404,32764,8661,-3017,8132
25240,2475,17799,19366,30742,30054,16647
25250,3360,17408,5106,32766,30884,18172
25260,-1756,16052,2226,32766,23426,15220
25270,-12371,17205,2690,19990,18438,10276
25280,-12567,14808,6994,7159,7760,8798
25290,-13502,14104,2444,2302,1344,6776
25300,-13768,12302,-7146,-3408,-1308,-15
25310,-13448,11437,-6061,-6488,-1504,-3491
25320,-11833,10018,-1639,-9527,-1915,-5882
25330,-10870,8021,3254,-10714,-728,-8114
25340,-3099,5422,8632,-6740,4066,-12873
25350,1672,6433,6732,-4281,3387,-15058
25360,4583,6362,4608,-4382,3686,-16202
25370,8708,7485,-467,-7769,5988,-17689
25380,10378,10382,-2177,-8871,5355,-19518
25390,13964,16371,-2728,-9609,5227,-21363
25400,23086,30941,-2850,-10877,6249,-26238
25410,27520,32418,1106,-11925,5801,-29041
25420,32582,29621,8789,-11749,5349,-31404
25430,32748,32748,24438,-2773,9348,-26921
25440,32748,29420,16125,12739,24137,-15639
25450,32748,20245,5297,30629,30994,-1061
25460,32748,7420,-3487,32766,20534,-3682
25470,24364,5723,-9615,29202,8199,-21733
25480,18847,16182,-11540,22474,66,-21541
25490,19715,25221,-11161,14172,-6336,-18097
25500,20861,30585,-6554,5874,-7897,-16021
25510,18626,21702,-6899,181,-5351,-10795
25520,19997,14857,-8838,-2724,-7232,-7602
25530,19559,9500,-9576,-7422,-8052,-4889
25540,13598,1932,-5306,-16161,-8241,-949
25550,9317,-1077,-4196,-17139,-6385,741
25560,6290,-4024,-2952,-16561,-5580,2574
25570,3517,-11547,-1570,-16074,-8169,7396
25580,2935,-14062,409,-16468,-11242,10643
25590,571,-14792,1368,-16538,-11623,13853
25600,-2825,-13201,3538,-13660,-5242,17462
25610,-3618,-11730,2852,-8313,-2935,15980
25620,-3095,-9554,2471,-3724,-1665,14023
25630,3475,-1100,10732,-881,2646,9768
25640,4514,6056,19977,676,4339,4165
25650,5248,13444,19668,5626,2068,313
25660,771,24197,-7333,16368,-9467,-7710
25670,2392,23157,-15916,16051,-12416,-10119
25680,4137,20037,-19381,11641,-9065,-10067
25690,3210,14653,-17122,4533,-3232,-8615
25700,1422,4335,-3441,-4781,-1835,-7141
25710,4198,2240,12402,-5191,1831,-5724
25720,30529,-5042,32764,5747,13175,-4393
25730,17840,6367,-28824,27853,-2363,-8399
25740,19789,5425,-24620,12504,-476,-2824
25750,25516,3303,-21870,-724,4950,3958
25760,24960,1515,-16093,-10291,3217,5446
25770,26692,2935,-9575,-12838,38,10958
25780,25945,1992,-9548,-9706,-2836,14692
25790,24138,2322,-7307,-8143,-6814,15266
25800,27090,6077,-3422,-8019,-7012,18308
25810,32606,8568,-2760,-7113,-5946,21468
25820,32748,15609,-6635,-3492,-920,18601
25830,32748,18793,-9761,-3433,2231,14931
25840,31619,21834,-12546,-5467,2891,14056
25850,28423,25396,-13041,-9138,980,14602
25860,23479,31150,-10574,-17282,-11982,17001
25870,23633,31763,-3570,-19156,-22219,17980
25880,20181,31764,3710,-16691,-26916,17022
25890,4090,21802,23815,6722,-6915,17335
25900,8653,18593,10767,23653,7262,21699
25910,8247,15409,6944,29291,9288,20456
25920,3625,14093,3113,23717,9719,17809
25930,-329,12859,11735,-1085,2105,15800
25940,-3073,10035,17132,-3348,-4430,13520
25950,-6152,8782,12537,-330,-3961,10323
25960,-9942,8456,1836,-3768,1540,2833
25970,-8644,8414,-1595,-6337,1255,228
25980,-7093,8169,-3075,-7475,311,-1853
25990,-5079,8119,-997,-10059,425,-7294
26000,-6930,7514,3437,-11689,2975,-10720
26010,-7463,5925,9752,-11441,6084,-13147
26020,-453,3605,11023,-8915,8147,-13305
26030,16470,19316,-1416,-7008,14715,-23349
26040,19343,30957,-6207,-5478,12363,-30709
26050,20659,32748,-5693,-6765,7958,-31773
26060,25164,32748,-215,-7683,5017,-31192
26070,32748,32748,16847,-4087,6012,-29406
26080,32748,32081,5377,30065,26458,-18399
26090,32748,24689,-5506,32766,21870,-13993
26100,32748,16638,-11545,32766,14641,-15742
26110,24820,17201,-20111,23265,-5782,-21217
26120,27279,21240,-15852,13251,-12442,-17161
26130,27192,22137,-10146,7237,-11215,-15321
26140,18557,14755,-5926,7498,-7348,-14360
26150,15574,10790,-6711,6510,-8566,-12121
26160,13047,7920,-5994,1986,-10214,-9375
26170,7933,1734,132,-4464,-10912,-6464
26180,4572,-2146,2792,-16164,-10064,-693
26190,2264,-5875,3621,-21426,-10853,3388
26200,2071,-8708,5624,-26384,-13075,7806
26210,-531,-9958,6133,-27311,-11794,13838
26220,-2052,-9793,4678,-24886,-10551,15647
26230,-2247,-9104,4172,-22970,-9736,16700
26240,-504,-8809,4911,-18946,-7194,15958
26250,1541,-7996,5547,-16067,-5275,14169
26260,6464,-3080,2972,-7321,-2608,8325
26270,8518,-429,2167,-1285,-3743,5154
26280,10388,5833,5220,4853,-4828,1636
26290,11966,14049,6489,10281,-4285,-2545
26300,5034,23339,-9149,22524,-2189,-10482
26310,4528,20568,-20597,24979,-1972,-10949
26320,4781,15510,-19684,20172,-75,-10872
26330,4709,2936,2755,8791,5219,-8963
26340,21880,3093,32764,11571,9188,-5653
26350,26900,15240,-2089,26086,4178,-6882
26360,23120,14670,-17077,19916,-3911,-8827
26370,16932,821,-9627,-5242,3187,1682
26380,20919,1675,-9269,-7915,4268,8079
26390,27684,4330,-7675,-8196,4481,14952
26400,30674,3784,-7210,-6733,-1694,21964
26410,27278,2997,-8876,-7085,-5002,18984
26420,25302,3799,-8247,-9461,-6554,15475
26430,29414,6320,-5332,-13202,-2124,17803
26440,32706,9417,-6259,-11668,-1224,18878
26450,32748,13909,-9176,-9657,-2090,18037
26460,32748,22936,-15002,-11675,-5023,15675
26470,31588,26476,-14071,-15423,-6974,15724
26480,26521,29584,-10894,-18777,-9266,15928
26490,21073,31284,2137,-18623,-18937,19734
26500,17694,30050,17139,-12231,-21554,21704
26510,14158,24735,32764,3813,-14884,23482
26520,13074,16899,6132,27325,6439,21854
26530,7575,17256,615,12911,7679,19467
26540,5169,17485,4323,-6658,1266,17876
26550,2555,15246,11012,-17231,-7122,16560
26560,-3464,7450,16986,-5889,-7969,14743
26570,-7579,6565,10939,4329,-3435,10942
26580,-10824,6579,4388,6701,2289,6718
26590,-11607,9536,-3255,-3734,5061,-256
26600,-8458,11011,-3697,-6060,1150,-2857
26610,-6309,11179,-2162,-6643,-1403,-6491
26620,-7249,11102,2329,-6590,-820,-10944
26630,-9625,11850,15853,-314,10633,-15256
26640,-31,10849,8994,4355,14550,-15587
26650,3959,9367,-230,2893,13677,-18243
26660,8879,12553,-6292,-10210,10466,-22856
26670,13019,17474,-6299,-15124,9246,-25823
26680,18648,28867,-8015,-19936,3502,-32588
26690,19922,32748,-8814,-21135,-540,-32767
26700,21637,32748,-5344,-22007,-3842,-32720
26710,23381,32748,6073,-17880,-1546,-29418
26720,32748,32748,-5687,24392,31753,5851
26730,32748,24176,-3876,32646,25907,10056
26740,32748,7315,3339,32766,-324,-4201
26750,28705,4559,-19839,32743,-8757,-25016
26760,24974,11975,-17256,26017,-11354,-18168
26770,24409,17957,-6324,5653,-16347,-12677
26780,21233,18992,-243,-7156,-17181,-10621
26790,17636,7068,-5074,-11988,-18453,-5547
26800,15675,1748,-6436,-15272,-19280,-2496
26810,13785,-1509,-4432,-19414,-19563,-174
26820,8810,-7289,-478,-24246,-16889,3446
26830,7036,-10619,2631,-26149,-16303,6034
26840,5654,-13025,7897,-28673,-15406,9325
26850,3965,-10123,13833,-31832,-11254,15159
26860,3769,-7147,14507,-30883,-9094,16548
26870,2662,-5077,12790,-28363,-6008,16338
26880,2572,-2301,9624,-25398,-3602,14804
26890,3755,12874,1184,3192,-8245,-6191
26900,2137,14458,3062,27369,6669,-15715
26910,2328,14886,-13139,32682,5661,-17031
26920,7042,14990,-22694,32761,2150,-17747
26930,4232,3439,-11308,22605,2249,-18367
26940,15382,3253,20702,15647,4557,-12111
26950,32748,13293,30788,19098,-3285,-7455
26960,32748,15425,-1618,19655,-7268,-6530
26970,22113,-661,-10220,-10243,-4965,1430
26980,21434,-3232,-6243,-14846,-2383,5865
26990,25395,-4671,-5266,-13785,905,11041
27000,32748,-5016,-6517,-8286,1144,17055
27010,30030,-5187,-5954,-7599,832,15651
27020,26127,-3171,-3888,-7790,408,13676
27030,27304,-306,-2185,-6676,-52,13915
27040,30452,6209,-3280,-397,1697,14989
27050,32702,10948,-9224,2174,2268,14851
27060,32748,17264,-15975,1634,1313,14799
27070,32748,32748,-23041,-10978,-2494,14316
27080,32624,32748,-18750,-18568,-5318,14642
27090,26882,32748,-13674,-22222,-10624,16085
27100,17822,32748,3892,-17439,-28137,17270
27110,12822,32096,11953,-7205,-30268,15170
27120,-2998,18095,32764,7279,-18790,14803
27130,11364,10449,15919,32766,22447,23334
27140,8615,15211,-4955,30070,23955,20503
27150,2907,15717,-6328,7364,13498,16075
27160,-2000,7299,13881,-13261,-5763,13505
27170,-5165,5956,10286,-4373,-5332,11844
27180,-8514,5663,3465,-313,-2717,9286
27190,-12891,8959,-4302,-4345,1770,3198
27200,-11149,9878,-4724,-5749,341,-652
27210,-10982,10200,-4378,-6162,-860,-5705
27220,-12037,9646,-964,-6259,-790,-10985
27230,-10729,5179,6964,-3419,8714,-13217
27240,-1559,3901,7841,-672,11713,-11839
27250,3958,3078,6720,753,11251,-12949
27260,5846,4094,78,-2071,13467,-15656
27270,5463,7654,-4132,-3861,14111,-17240
27280,6212,12835,-6447,-5706,12975,-19632
27290,12551,27381,-9444,-7360,10998,-22709
27300,15799,32748,-10540,-10627,5945,-29333
27310,19540,32748,-6840,-12896,664,-31508
27320,31565,32748,9485,-10046,-8905,-31747
27330,32748,32748,13052,-2285,-8464,-26390
27340,32748,32748,6591,11163,3956,-15800
27350,32748,19989,-7107,31513,12452,-4601
27360,32748,9761,-17442,32051,1048,-10899
27370,32748,6861,-16153,25300,-7853,-15175
27380,31303,9168,-13678,16036,-11097,-15360
27390,28756,15062,-7244,3399,-15311,-9702
27400,25402,15168,-4884,-146,-15274,-8010
27410,21737,12885,-4202,-1413,-13986,-6462
27420,17892,4468,-3122,-4521,-12926,-2294
27430,16485,391,-698,-7888,-14245,69
27440,13486,-3437,1697,-11485,-15228,2241
27450,8618,-9070,3882,-15037,-14676,8160
27460,6657,-11018,6956,-22544,-14416,11304
27470,4515,-10283,11619,-26993,-12124,14050
27480,2266,-7309,14540,-30134,-8958,15414
27490,1687,-1692,11973,-29717,-4385,14597
27500,1652,-800,9543,-26408,-3939,12949
27510,-23,-227,7299,-21743,-4837,10346
27520,1223,1085,-1035,-13864,-8583,4709
27530,1941,3654,-5761,-9596,-9796,1226
27540,3229,6788,-5748,-3450,-11482,-3074
27550,7416,11814,6122,20868,-1144,-13418
27560,2109,13290,-659,31613,10449,-18425
27570,-1424,12455,-20943,32766,12564,-19984
27580,-282,5953,-16419,24355,5929,-16765
27590,-861,1174,-5503,13147,5572,-14424
27600,3254,-4381,30791,7442,6367,-9970
27610,21825,11758,-20850,28353,-12855,-4705
27620,27640,17757,-29918,8825,-11156,-3629
27630,32598,20187,-25822,-13347,-5476,792
27640,32748,13431,-5279,-28742,-3460,16622
27650,32738,6372,99,-21261,-1060,19028
27660,26692,15,1875,-11122,2093,18507
27670,19904,-4422,2270,-3275,4493,16373
27680,24826,-3285,-216,4493,2357,15454
27690,32580,2861,-2555,5263,-463,15726
27700,32748,9575,-5629,5045,-1050,16233
27710,32748,24289,-20059,1572,4716,15085
27720,32748,30778,-23998,-5642,5705,13429
27730,32733,32748,-21023,-14732,3204,12477
27740,24649,32748,-15491,-21603,-1604,13219
27750,313,13226,32496,9588,-15851,17235
27760,12570,13115,13202,28112,4318,22759
27770,5037,13148,-3826,6061,9271,15282
27780,5050,11755,2821,-10294,-1353,14287
27790,-321,6904,11992,-9694,-9095,12881
27800,-5016,5841,10509,-3057,-5242,11104
27810,-9067,6424,7657,260,-321,9049
27820,-9538,7967,-2863,-1668,4420,3973
27830,-7325,7966,-6322,-4238,3390,9
27840,-6444,7462,-6189,-7374,1353,-5270
27850,-8066,6485,-3025,-10062,-781,-11925
27860,-16430,3535,7966,-8934,1881,-18862
27870,-7345,1515,10965,-4759,8190,-14383
27880,2938,694,9336,-801,12318,-10933
27890,7835,2126,2274,362,17334,-13053
27900,7807,5071,-1674,-983,18374,-15406
27910,7801,8488,-4094,-2778,17406,-18052
27920,13974,25155,-7952,-6153,14867,-23643
27930,18912,32748,-11087,-8505,12327,-27068
27940,22139,32748,-11925,-12281,6770,-29558
27950,24980,32748,4366,-16033,149,-29903
27960,27475,32748,13921,-3231,3034,-18271
27970,32748,31645,8743,19564,14966,-5577
27980,32748,17729,-3229,32766,-2764,-8333
27990,32748,12164,-16002,32765,-2417,-16266
28000,28701,15825,-19070,29478,-1531,-17293
28010,24859,25474,-9786,-3275,-19598,-9874
28020,24154,25200,-6466,-11316,-19956,-8143
28030,22501,21312,-8215,-12549,-18720,-6278
28040,22578,9200,-10368,-11191,-17841,-1813
28050,23039,4269,-9624,-11770,-17955,-209
28060,22392,430,-8188,-13258,-17046,674
28070,14204,-6013,1226,-16307,-16048,2316
28080,10548,-7562,5378,-17115,-16228,3982
28090,8064,-10149,7743,-19021,-16415,6360
28100,8185,-12551,8600,-22080,-17474,9406
28110,8115,-13777,14069,-29238,-13878,14325
28120,7517,-11350,14909,-32053,-8464,14250
28130,6268,-7773,15254,-31795,-4263,11927
28140,2583,-4862,12136,-18492,-3119,6652
28150,2924,-2907,8149,-9114,-3767,5074
28160,2344,243,2248,139,-4475,2798
28170,1109,2335,-6557,9969,-6026,-640
28180,411,5850,-5335,20977,-4967,-6879
28190,885,9242,-4733,26401,398,-9914
28200,3310,14722,-20416,32375,5508,-17010
28210,-26,11402,-19333,28300,3722,-19751
28220,-3831,7335,-15537,21389,956,-19418
28230,7406,9906,11508,8421,2884,-8988
28240,32748,32294,32764,16783,2002,-7024
28250,32748,32748,3183,31470,2425,-12994
28260,26681,25407,-31974,19730,5722,-11737
28270,13989,921,-8090,-24578,-4223,4832
28280,8135,-3430,-1426,-27251,518,12052
28290,11541,-4954,667,-22353,2273,20076
28300,26134,-2514,-3667,-6654,-675,26220
28310,32748,-265,-4770,-3514,-3625,26106
28320,32748,3620,-6380,-2232,-4799,24745
28330,32748,14400,-12388,-2733,-1412,15121
28340,32748,19063,-16259,-6268,2160,12273
28350,32748,23768,-17513,-12325,3439,12047
28360,31552,27831,-14534,-19130,1877,12218
28370,21692,31691,-6455,-25796,-8789,13827
28380,18397,29724,-852,-25003,-18344,15378
28390,14274,27346,5790,-21054,-26160,15523
28400,3986,15852,25894,7103,-18795,18958
28410,11122,12737,7519,20390,928,21577
28420,10052,10193,-25,14256,8870,17718
28430,5159,11366,1055,-11787,-2431,13806
28440,3369,10135,5147,-16865,-10088,13618
28450,1345,7825,8811,-14208,-12791,13456
28460,-6303,5202,8840,356,-6711,10341
28470,-9980,5677,8175,4260,-1477,8296
28480,-12182,6575,4827,5074,4412,5528
28490,-10722,8258,-5083,12,6730,-2980
28500,-10589,8638,-4618,-3607,3631,-8257
28510,-12483,7564,-407,-6008,1031,-12857
28520,-12582,6754,5490,-6247,1766,-14451
28530,4056,5640,5699,-3254,7473,-14383
28540,6895,6090,3046,-3733,8580,-16339
28550,8733,8722,333,-5359,9512,-17741
28560,14861,17723,-1723,-7604,9735,-22251
28570,18718,23178,-1909,-7461,9012,-26015
28580,21522,28901,-1656,-6725,7444,-29817
28590,23877,31409,1059,-5910,4428,-31786
28600,32748,30581,6096,-4114,592,-29332
28610,32748,32413,8153,-2049,3434,-24995
28620,32748,32748,5540,6844,12341,-15419
28630,24125,14498,-10138,18666,-827,-17138
28640,25963,17984,-10909,12640,-7738,-12446
28650,25502,19628,-7852,3267,-10996,-7431
28660,21959,16661,-6028,1629,-9692,-6436
28670,19289,12183,-6310,1265,-9038,-5173
28680,16600,3949,-3762,-2535,-11431,-717
28690,13654,820,-1570,-5677,-12345,1223
28700,10013,-2159,-292,-8891,-12258,3387
28710,9571,-3487,-1102,-11824,-13216,6551
28720,6548,-6037,3282,-16774,-12820,12209
28730,4516,-6633,5957,-18340,-9929,13760
28740,3696,-6878,7993,-19463,-5905,14023
28750,4479,-6768,12969,-20120,3471,9936
28760,2783,-6117,13757,-16638,3824,6984
28770,975,-3581,10073,-9384,213,4286
