timestamp, ax, ay, az, gx, gy, gz
0,1665,13471,-2247,6113,7120,-7427
10,2639,14671,-26,2165,4091,-6893
20,5309,15096,3266,923,1308,-5823
30,7315,14343,2478,2959,1746,-4961
40,7922,13791,1558,4706,2233,-3912
50,6121,12848,3414,3738,176,-4125
60,4977,12399,5271,2688,-783,-4304
70,3982,12699,5560,3035,-716,-4834
80,2798,13348,5538,4324,-327,-5699
90,2114,15368,3204,8120,2383,-6848
100,1786,16050,2074,9718,4634,-7168
110,1238,15884,2196,10904,7035,-7208
120,-2067,20091,3288,6507,1853,-4472
130,-740,17770,4371,2157,-3751,-2371
140,-548,16925,4399,1237,-4424,-2214
150,-637,16681,3746,1206,-4914,-2158
160,-814,16849,3106,1410,-4983,-2171
170,-1328,17379,3150,1437,-4216,-2380
180,-1455,17717,2895,1509,-3766,-2422
190,-1493,17981,2692,1524,-3491,-2433
200,-1369,18137,2713,1241,-3186,-2381
210,-1374,18012,2831,960,-3199,-2406
220,-1509,17728,3029,472,-3301,-2518
230,-1634,17282,3289,-170,-3615,-2711
240,-2282,16686,3300,-675,-4004,-3185
250,-2757,16833,3135,-503,-3811,-3451
260,-3484,16925,2860,-522,-3734,-3896
270,-3633,16946,2684,-973,-3822,-4004
280,-3886,17026,2704,-1418,-4082,-4064
290,-3837,16859,3845,-2216,-4413,-4151
300,-4098,16540,3710,-2419,-4494,-4352
310,-3880,16244,3767,-2678,-4871,-4523
320,-3736,15846,3625,-2992,-5028,-4709
330,-4024,15203,3273,-3425,-5050,-5152
340,-4060,15205,3941,-3881,-5273,-5223
350,-4485,15308,4596,-4366,-5752,-5322
360,-3600,15087,6993,-5243,-8046,-5468
370,-3451,14869,6484,-5434,-8561,-5476
380,-2686,14661,6916,-5569,-8722,-5245
390,-3142,14577,4948,-4876,-7917,-5166
400,-3139,14314,4573,-4801,-7757,-5023
410,-3708,14001,3826,-4472,-7064,-4932
420,-4475,13707,2691,-3969,-6439,-4725
430,-5811,12609,1909,-3846,-6746,-3802
440,-6525,12005,1100,-3750,-7432,-3290
450,-6128,11331,869,-3851,-8318,-2556
460,-4583,9396,2004,-3908,-9165,-855
470,-4457,8371,2498,-2993,-8735,99
480,-4555,8254,1838,551,-5711,2533
490,-3877,8144,1977,2004,-3823,3904
500,-2271,7438,1422,3458,-2174,5541
510,94,6160,-1001,4665,-460,7399
520,5809,499,-2016,6334,-52,11785
530,9875,-821,6557,8058,-2495,12786
540,10553,7761,31277,10867,-1950,10029
550,-4273,32748,-24197,16693,9071,-145
560,8923,32748,-26040,23847,5070,2087
570,8244,22019,-4528,11553,16532,3184
580,-1386,9765,11570,5673,21607,1636
590,481,5330,-1293,10384,3820,5962
600,1939,7224,-3431,9451,264,7476
610,3606,10613,-3077,9739,-1655,8920
620,6014,19765,-2922,12526,4190,10751
630,8074,23530,-4337,13955,6436,11502
640,9754,24513,-4991,13897,8454,12566
650,11088,23911,-5337,12464,9866,13633
660,10866,22113,-2656,5158,7802,13426
670,10117,21896,-654,1416,4882,13408
680,9810,22351,-1071,-531,1714,13984
690,10183,24586,-2114,-2523,-2769,15323
700,9023,27849,-6107,-2048,-3332,15528
710,7392,32733,-8389,-2116,-7102,15137
720,162,32748,-3182,-3000,-11298,14176
730,-140,32748,-5697,-114,-9046,15007
740,-450,32748,-8169,3909,-7474,15136
750,-3440,32748,-2908,3025,-175,15297
760,-2240,29817,2037,61,2249,16817
770,-1508,25064,6269,-418,2412,16580
780,2421,22260,7963,1620,2888,15399
790,2064,20241,8120,5253,8161,14385
800,921,18935,9921,4650,10552,15188
810,334,17274,9517,5003,10201,15543
820,-3654,9475,7167,3366,-1151,12562
830,-5219,8339,6764,1438,-7667,9845
840,-6890,7064,6350,866,-11175,7364
850,-10515,3358,3726,827,-6112,4073
860,-10253,2090,2535,156,-2316,2286
870,-10501,1101,2051,-716,336,-10
880,-11466,979,1651,-1827,1482,-2492
890,-11567,5313,-1587,-5945,-1237,-6944
900,-8771,9012,-2638,-7636,-4775,-9003
910,-5002,12048,-2501,-8786,-6761,-11305
920,-2137,16643,-89,-10004,35,-15570
930,-428,16899,2037,-10748,4311,-15462
940,4084,24348,416,-15106,-2189,-21448
950,6529,32748,-1744,-17851,584,-24404
960,7519,32748,-900,-18953,828,-22046
970,8620,32748,972,-17458,2620,-15009
980,29553,32748,-1671,255,15404,4947
990,32748,32748,-4918,8714,17964,2904
1000,32748,32748,-4947,10792,15390,-11457
1010,21693,32748,-6714,10201,10346,-24578
1020,8628,32748,-6214,7558,-4904,-22989
1030,8041,32748,-955,5037,-9114,-20623
1040,7723,31551,-2260,4748,-9098,-18798
1050,8685,21839,-2950,2601,-12548,-11908
1060,5962,17163,-2603,926,-13454,-9081
1070,2631,13525,-4189,-205,-14961,-6462
1080,1081,9873,-3871,-1741,-17357,-3576
1090,3088,633,-4875,-5638,-19021,1648
1100,6674,-3744,-4771,-8390,-17781,3062
1110,8489,-6536,-2839,-10778,-17768,3489
1120,7279,-12938,121,-9991,-16383,4753
1130,5709,-12703,-1349,-7224,-12432,6002
1140,3638,-12233,-2438,-3648,-8902,7398
1150,2934,-10610,-3531,967,-3741,10264
1160,4705,-9647,-2657,937,-1594,11787
1170,8054,-7885,-449,49,116,12321
1180,11567,-1099,19082,-491,-2741,5124
1190,5314,6270,20117,4603,-8147,-177
1200,2312,13140,14323,11025,-10099,-2281
1210,-1152,20771,-2415,16248,-1538,-9950
1220,-5871,16947,-8266,20332,4461,-14449
1230,-2842,12724,-11778,24585,5697,-13847
1240,636,13012,-10821,18993,9239,-11590
1250,4305,19700,-10569,11057,12304,-9977
1260,12903,26908,-5395,3693,11137,-5455
1270,23124,28972,582,-2641,12963,1861
1280,16749,8323,-1473,-4298,-2753,7131
1290,12466,3952,-2111,-3010,-6053,8931
1300,13827,3043,-2653,-2180,-5106,12683
1310,19317,7240,-5049,-2411,-3021,17478
1320,23144,11515,-5273,-2389,-4121,19458
1330,27706,15559,-5829,-1646,-4672,21805
1340,30483,17927,-5833,-549,-4125,23409
1350,29331,21333,-7043,2282,-187,20643
1360,27108,25749,-14672,2403,-568,17974
1370,25305,32294,-20003,-1360,-8362,16188
1380,17373,32748,-17587,-11632,-28427,13821
1390,13543,32748,-11892,-11799,-32537,13969
1400,-9853,32748,32764,12209,-11499,7743
1410,-9877,32748,12598,31871,30589,12786
1420,-13765,24186,32426,32765,32766,16723
1430,-13937,31452,9278,31587,32508,17539
1440,-9725,16709,4760,-16206,-18599,7272
1450,-5870,10951,3583,-13103,-20547,7070
1460,-6340,6081,1159,-3876,-15009,4990
1470,-9276,-2771,1763,1421,-10727,423
1480,-9534,-5131,2531,708,-7450,307
1490,-9503,-5231,3614,-1174,-2973,55
1500,-8462,-3293,3470,-2831,883,-967
1510,-8008,1666,2268,-4160,2860,-5959
1520,-6519,5512,2776,-5352,2734,-8235
1530,-2964,9179,4851,-6550,2912,-10419
1540,3408,12591,2612,-8158,5173,-13242
1550,5070,15574,17,-9014,5682,-15056
1560,5708,20416,-1495,-9962,6519,-17571
1570,5772,24400,-618,-11183,6660,-20452
1580,7024,32123,3703,-13289,3670,-25787
1590,11804,32748,7821,-13890,4112,-29037
1600,16831,32748,10409,-13308,8851,-32227
1610,22478,32748,7945,-8574,9276,-28920
1620,22726,32748,5210,-4079,8703,-16573
1630,32748,32748,-14937,21515,16659,3808
1640,32748,22567,-11735,22475,13453,-6938
1650,16226,20741,-5851,15478,12439,-21130
1660,597,28994,-1768,11467,-449,-18635
1670,1402,30643,-4911,9703,-7583,-13916
1680,3702,26788,-7023,5451,-12054,-10176
1690,4140,20803,-6279,184,-15003,-6040
1700,4501,12097,-4880,-7685,-20126,806
1710,4338,7071,-3205,-10217,-19364,2590
1720,5540,1947,-2104,-11517,-17798,4424
1730,6862,-6371,-2827,-10708,-14270,9144
1740,6548,-9519,-2334,-10348,-13638,11226
1750,5298,-11521,-707,-9821,-13762,12359
1760,3441,-11949,-1180,-8650,-12960,13465
1770,3638,-11405,-2481,-6495,-9540,17295
1780,5122,-9971,-1956,-5098,-9416,18420
1790,5496,-7943,-1955,-3161,-9627,17784
1800,7095,-5151,-1757,-1945,-8394,13602
1810,7697,-3227,-372,-1645,-6079,10802
1820,9590,450,2036,-340,-3691,7194
1830,8737,27846,32764,940,3852,2003
1840,-289,16194,-21912,31065,-3384,-26634
1850,2907,13495,-14524,21387,9004,-26202
1860,14408,4189,5531,-14584,26829,-8000
1870,10578,-7,3584,-15801,7468,1164
1880,9131,-1802,1077,-10603,-4905,7890
1890,23552,3147,-3723,-1180,-6134,19586
1900,32748,9664,-7730,5331,-7350,23311
1910,32748,10718,-12735,12293,-12494,23447
1920,32748,8854,-17361,16816,-18276,21171
1930,31809,11207,-19133,8953,-4385,17827
1940,30103,14158,-17173,1855,5486,17682
1950,29605,19024,-17689,-2753,7137,17742
1960,28210,32748,-20884,-11298,-3323,17361
1970,30668,32748,-20344,-15821,-9454,17375
1980,23997,32748,-13065,-19060,-16235,14877
1990,18449,32748,-2080,-15784,-26720,12009
2000,-7395,32748,21843,28781,20577,12791
2010,-14844,30923,10619,32766,32766,16330
2020,-4694,23605,32764,32766,32766,20440
2030,-12599,29618,-1416,25195,30490,19209
2040,-6968,14673,8892,-17164,-21311,8585
2050,-5032,8795,6962,-6423,-16019,8437
2060,-9692,-958,2589,6131,-602,2890
2070,-11581,-1949,3716,2382,2191,2136
2080,-12206,-98,5744,-262,1631,1447
2090,-10938,3486,354,33,-2218,-1113
2100,-9334,4435,-2163,-984,-2749,-2924
2110,-8719,4655,-1716,-3232,-2501,-5113
2120,-8865,4881,-36,-5824,-1072,-7048
2130,-3788,7526,2766,-8784,2675,-10329
2140,-902,8843,1995,-9222,3014,-12446
2150,1387,10637,1114,-9850,3131,-14733
2160,4925,21237,1179,-10868,4247,-20528
2170,6184,26337,3005,-11076,5072,-23555
2180,7945,28517,5202,-11415,5436,-25978
2190,11122,30845,6207,-11598,5452,-28535
2200,21021,32748,8497,-11517,12106,-32764
2210,29161,32748,7115,-10639,10246,-32765
2220,32748,32748,7905,-9631,5075,-29329
2230,32748,32748,-10506,18357,19838,-3075
2240,32748,31372,-9721,26999,17998,-6380
2250,21248,23041,-10102,22863,9790,-21004
2260,5784,21536,-7414,20230,8549,-26228
2270,1803,27543,-10596,14296,-3122,-16663
2280,3507,26233,-6141,7175,-8685,-11951
2290,5092,16618,-5655,-1757,-15665,-4719
2300,4739,11724,-7638,-5789,-18206,-1031
2310,6619,6890,-6605,-10900,-20959,2512
2320,8543,1170,-4543,-15272,-20906,5097
2330,10613,-12645,-4967,-17747,-15181,8115
2340,10213,-15487,-7360,-17797,-12806,9026
2350,7321,-17001,-6833,-18006,-11777,9585
2360,5684,-16002,-5313,-17497,-6390,13956
2370,5321,-16355,-1472,-16506,-4594,15931
2380,6707,-18223,3742,-13303,-3468,17609
2390,6292,-22103,11442,534,2103,19812
2400,9019,-19646,11254,9014,3996,19684
2410,2676,-10722,13235,13518,1336,14087
2420,-632,1126,12032,11722,-5943,6978
2430,7237,20160,9950,-1124,-18738,-1158
2440,4988,27225,10012,-4774,-15027,-6877
2450,108,26265,2770,3270,-2102,-11342
2460,-1005,11676,-5575,27336,17527,-14013
2470,4370,8827,-11309,30425,18653,-13832
2480,18711,11999,-2634,25387,12891,-15409
2490,20015,17145,-6828,15124,9199,-17711
2500,32748,32748,-20649,13982,-8954,-14382
2510,30506,20959,-15289,11330,-6904,-1043
2520,6496,-2294,-11928,4860,288,6830
2530,5340,-4159,-11324,1855,-5285,7607
2540,12995,2373,-14289,422,-8549,11277
2550,32205,20740,-17592,-2373,-8045,21298
2560,32748,24301,-15858,-1676,-7346,22113
2570,32748,26355,-12302,407,-1191,22538
2580,32748,30773,-12474,2081,5346,21668
2590,30936,32748,-13925,46,9268,14386
2600,23779,32748,-9115,-2467,4109,11403
2610,6599,32748,31555,-1646,-621,11171
2620,-8101,32748,31715,18154,18558,18421
2630,-2649,32748,3588,31284,24077,25541
2640,-11322,31367,5652,14093,18377,17754
2650,-11960,26654,7182,-2233,5031,14680
2660,-8404,14176,3504,229,-7100,10417
2670,-13708,6734,3478,2954,-5227,6530
2680,-16907,1583,4529,3259,-3158,5289
2690,-13386,1472,3687,671,-2575,5605
2700,-12447,1731,2915,-1531,-3857,3360
2710,-10874,2174,1435,-3965,-5635,887
2720,935,3495,7443,-7197,4167,-8152
2730,2709,3601,6702,-7343,6631,-9041
2740,4531,8947,969,-7879,9294,-12106
2750,5497,14443,-1278,-7541,9631,-15734
2760,8228,27684,-2284,-7715,5901,-25878
2770,6010,31303,-2018,-8295,3014,-30561
2780,5194,32748,1686,-9204,1368,-32440
2790,26552,32748,16044,-6440,15533,-31392
2800,32748,32748,7223,-2316,21095,-30911
2810,32748,32748,9729,-610,15771,-25630
2820,32748,32748,3212,6185,17569,-16873
2830,32648,24122,-12895,21767,9998,-16300
2840,20051,20017,-12065,19343,9576,-22421
2850,11631,20942,-9095,15749,11511,-24192
2860,3389,22594,-329,12303,7801,-17804
2870,-757,21389,-2115,11746,4599,-14022
2880,-2159,19167,-5818,9130,-762,-9715
2890,-2326,16020,-7181,3870,-7048,-5486
2900,2415,8335,-7574,-7597,-14740,1643
2910,6497,3255,-6709,-11205,-15591,3588
2920,11237,-2988,-6704,-13182,-14033,5040
2930,14593,-18692,-6437,-18795,-9764,6857
2940,12349,-21087,-4957,-21258,-12181,7376
2950,7575,-22764,-1548,-18040,-13783,7775
2960,4587,-20578,-26,-4211,-5963,11362
2970,7249,-20250,2793,1689,210,14013
2980,13683,-17986,12043,6732,3431,14469
2990,-2524,10924,21789,12655,2394,2138
3000,-8406,20182,2697,13406,-1899,-2513
3010,-12025,22013,-16239,17940,-8139,-6613
3020,-6085,18107,-21310,23741,-13612,-8435
3030,5556,16763,-2276,24374,13022,-12378
3040,7584,22766,-5379,19665,30956,-17621
3050,7931,32748,-604,18501,31025,-23030
3060,18314,29245,-4506,8168,9527,-5411
3070,17003,10140,-9358,-5110,671,8296
3080,11877,-74,-8709,-9563,-7021,13046
3090,14283,-240,-5517,-11456,-10616,15761
3100,20883,5297,-7493,-12088,-10489,24823
3110,27594,9938,-9969,-11826,-13536,29767
3120,31759,14346,-10606,-12239,-18612,32570
3130,32748,24086,-11455,-10324,-16262,32677
3140,32748,30947,-13239,-8745,-9739,30031
3150,32748,32748,-16852,-9254,-5107,23615
3160,19740,32748,-9163,-13903,-13662,15684
3170,11524,32748,11520,-12141,-16799,14890
3180,-8221,32748,32764,5145,-985,17734
3190,-4916,30589,8450,32766,23701,25406
3200,-10618,30330,4083,27323,10964,19505
3210,-14158,23643,5505,-1365,364,13738
3220,-8767,10594,4040,-8321,-13220,9842
3230,-11779,5898,2206,-3235,-12024,7011
3240,-13590,2458,2293,-2207,-11445,4732
3250,-12177,1901,3980,-5720,-2939,3
3260,-11911,2085,2684,-7457,-402,-3000
3270,-9144,5030,3070,-8739,-3765,-6094
3280,543,5257,8627,-9538,-7371,-8650
3290,6598,6619,8762,-11022,3613,-13776
3300,10128,6005,6240,-11366,9158,-15019
3310,11672,5570,4001,-11976,13371,-14900
3320,15256,10930,2100,-11449,20469,-15650
3330,19906,18831,1369,-9444,19054,-18151
3340,25145,29324,799,-7166,17060,-21031
3350,32748,32748,1500,-1883,17155,-23827
3360,32748,32748,4088,3317,19092,-21452
3370,32748,32748,8051,11170,21742,-18168
3380,31518,25082,1896,26087,27532,-17018
3390,25262,18610,-4247,28041,25454,-18245
3400,19160,15433,-11467,27338,18830,-18090
3410,9170,18838,-5919,14029,6159,-16682
3420,4081,18895,580,9867,5212,-15119
3430,-893,17436,1062,9290,4573,-13456
3440,1956,6284,-4380,6938,-2645,-6873
3450,4882,741,-5646,3580,-6150,-2841
3460,7924,-3564,-4814,75,-7973,911
3470,9351,-7598,-3300,-2252,-7699,4025
3480,4971,-14532,-2424,-3595,-6388,6921
3490,2580,-15855,-1403,-2227,-5882,7085
3500,2403,-14403,-546,226,-2967,7322
3510,3917,-3807,712,2631,2279,4851
3520,1950,4751,5425,-65,762,3318
3530,-1543,12598,8280,-2403,-2721,1626
3540,-5524,19121,4135,-2181,-6849,-776
3550,-10001,21621,-10246,6015,-11617,-7047
3560,-4818,17602,-14578,13308,-10566,-8787
3570,-638,13092,-10151,17598,-3385,-10626
3580,14763,19673,31715,7421,26620,-8852
3590,20733,24135,-5607,4278,-7657,-6258
3600,22659,23796,-17505,2148,-24487,-3856
3610,20239,2814,-4767,-5353,2979,20356
3620,24901,5545,-7809,-3559,1764,24302
3630,29054,10077,-10786,-3499,-2329,25819
3640,31027,22431,-20229,-11528,-12132,24003
3650,30298,28611,-19580,-19350,-16405,21794
3660,25977,29903,-14002,-25813,-19616,19357
3670,21357,30485,-8527,-27672,-22104,17711
3680,6521,32702,14742,-15971,-24154,15566
3690,-7054,30408,32764,4321,-19844,17934
3700,5504,27031,16668,29529,-79,22568
3710,-2321,26507,3487,21904,19063,14203
3720,-1221,21249,7977,-54,1959,13360
3730,-101,18037,8381,-5270,-8323,12022
3740,-2792,14230,6418,-348,-4917,8333
3750,-6761,7126,2722,4023,4579,6182
3760,-7387,5711,3367,637,3738,5841
3770,-7862,4896,3533,-2701,295,4645
3780,-7532,3851,1508,-5221,-2372,844
3790,-7885,3161,566,-5813,-1092,-2038
3800,-8732,2986,-671,-6464,-301,-5341
3810,-9790,3644,-1242,-7322,-915,-8870
3820,-1625,10471,-824,-9568,23,-14349
3830,4603,14714,-545,-10154,1202,-16515
3840,14924,26493,2886,-10055,-324,-21556
3850,21792,32748,5676,-9337,-154,-24020
3860,32748,32748,14468,-8697,-67,-26319
3870,32748,32748,7195,-10713,16625,-25420
3880,32748,32748,5553,-9371,19052,-15251
3890,32748,29682,2349,-3606,19367,-4931
3900,32748,19132,-4228,7208,17725,-4857
3910,32681,13348,-7183,11188,18953,-11461
3920,21348,14891,-9814,14762,15673,-15576
3930,13549,20547,-11834,16658,9841,-16347
3940,3837,29333,-5236,9738,9213,-13591
3950,2675,28942,-1915,6809,7148,-11042
3960,4479,24629,-3070,5606,3575,-8005
3970,2926,12801,-7098,-650,-6090,-3975
3980,3412,8440,-6548,-4511,-10322,-1706
3990,4322,3408,-5107,-6633,-12310,576
4000,6674,-4403,-5027,-8288,-11755,4573
4010,5624,-9658,-3042,-10500,-11085,6950
4020,3835,-12898,-1860,-10746,-11175,10017
4030,4029,-14744,-1717,-7211,-12604,11768
4040,8110,-6893,-3904,439,-6581,5808
4050,4963,-1060,-5235,-18,-787,-55
4060,-474,6938,9446,-11733,8695,-1651
4070,-6785,8669,21992,-18285,6206,-255
4080,-9179,12861,18397,-14716,-6414,255
4090,-6158,9430,1577,-1957,-17185,-1035
4100,-7738,3092,3324,12153,-5122,-13563
4110,-9444,-3413,6958,13731,12220,-17644
4120,-7672,-7198,8753,11796,29038,-15265
4130,14571,4110,-4599,14186,-2171,-4859
4140,22101,8616,-11548,15162,-9821,2478
4150,32070,11030,-16641,15786,-9288,11283
4160,25690,9028,-14954,12014,-2822,12324
4170,24171,11777,-14579,9010,168,11868
4180,28753,17510,-18931,7730,2028,15862
4190,32712,25201,-21687,5563,394,20336
4200,32748,32748,-16898,-5125,-7759,23568
4210,30489,29020,-11341,-11801,-8324,19742
4220,22379,24227,-4446,-16321,-9503,15163
4230,7154,21340,17775,-13526,-11741,13430
4240,-1176,28813,32764,540,-10224,16608
4250,5503,30682,12998,25224,8654,19530
4260,-2832,24262,823,5449,11196,10696
4270,-3990,21383,4691,-785,6767,10504
4280,-3906,20118,5809,-121,3671,10354
4290,-7344,14046,8338,3752,6911,5586
4300,-6879,11253,5369,2929,10551,3693
4310,-6546,9680,2055,303,9391,1898
4320,-5201,6282,-2424,-4704,-577,-2014
4330,-4781,5007,-3761,-6619,-5871,-3592
4340,-4109,3942,-3019,-8429,-11035,-5435
4350,-4556,2592,-984,-9582,-14161,-7708
4360,-5017,3302,566,-9461,-9352,-12014
4370,-2999,6808,-827,-9263,-3980,-14589
4380,-528,12279,-2090,-9363,-647,-17623
4390,8216,28620,108,-9729,225,-19486
4400,13171,32748,4783,-8939,1699,-18795
4410,22416,32748,15411,-6269,5071,-17811
4420,28858,32748,18391,-2060,13199,-18635
4430,32508,32748,8615,553,15515,-17012
4440,32748,31905,6765,2619,16639,-12592
4450,32748,25561,5109,5030,19439,-10085
4460,27835,17111,-2537,13942,19922,-17416
4470,15372,19750,-3263,14349,16071,-20882
4480,12171,23196,-6631,14815,11553,-18276
4490,9902,28744,-3817,13267,6860,-16710
4500,5190,18566,-3307,1702,-4723,-7662
4510,2934,13444,-4076,-1874,-9801,-2667
4520,1305,10416,-5120,-2505,-10324,-539
4530,88,7239,-6315,-3065,-10512,1478
4540,-191,3103,-5429,-4602,-10950,3912
4550,1681,-7886,-1743,-7658,-10930,8564
4560,1946,-11020,-584,-7175,-13408,10360
4570,1568,-13056,-380,-5562,-15912,12194
4580,665,-11017,-1367,-1741,-13012,13454
4590,-231,-9224,-1378,559,-10353,13094
4600,150,-7064,-2095,1592,-7439,13077
4610,2202,-4366,-2037,391,-4296,12801
4620,8556,6658,8920,-8673,3533,6662
4630,3032,16307,22642,-9360,5872,371
4640,-1875,21974,11060,1649,-624,-4186
4650,6320,23523,-9681,26615,-10147,-10518
4660,12870,24975,-11057,28466,2224,-14502
4670,25483,32722,-127,20210,22173,-15721
4680,26746,24388,271,8587,27696,-6749
4690,13687,6426,-9084,587,-502,-1287
4700,10505,-3477,-7953,-4052,-4146,4260
4710,8951,-6693,-6179,-4982,-4934,8575
4720,18325,-3393,-6946,-2920,-1989,15746
4730,24351,1385,-8830,-288,-1624,19603
4740,31474,10134,-13136,1814,-6538,24063
4750,32495,13666,-13096,621,-8068,22626
4760,32748,17854,-14671,-1111,-5416,20014
4770,30228,21709,-16433,-3817,-2154,16351
4780,21479,27292,-11761,-9737,-37,12001
4790,18308,29804,-11178,-10294,-181,12016
4800,15668,32707,-6975,-10092,-2963,12097
4810,1422,32748,28398,869,-6276,12456
4820,-3076,32748,23572,21137,5151,16029
4830,-290,32748,1581,32543,18953,19111
4840,-1066,30237,3919,32765,20324,18123
4850,-4683,27405,5880,6850,12458,15700
4860,-3072,23358,6078,-12414,-8117,14025
4870,-893,21489,7428,-15539,-15324,11993
4880,-2049,11872,5264,-2297,1000,6203
4890,-2814,6619,3800,717,6204,4561
4900,-4221,2248,2943,1060,4514,3494
4910,-9187,711,1664,-1535,-889,1923
4920,-10986,2175,1990,-3554,-1505,783
4930,-11206,3386,2052,-5065,-1917,-711
4940,-10929,4033,1445,-5846,-2438,-2959
4950,-9904,4619,49,-7894,-1687,-8503
4960,-5603,5338,241,-9566,-1001,-10284
4970,1835,8062,1107,-11392,326,-12921
4980,4646,11005,912,-11610,2149,-14190
4990,7800,15918,302,-11504,4130,-16117
5000,10016,21608,-314,-11117,5586,-18912
5010,12174,30988,-827,-10259,4070,-23244
5020,15157,32747,661,-9766,1765,-23306
5030,20071,32748,3798,-8799,1927,-22340
5040,32748,32748,10748,-2775,16706,-18786
5050,32748,32748,8943,4190,20686,-15393
5060,32748,32725,3872,12734,15804,-11913
5070,32748,19444,-9241,17438,12234,-11453
5080,20032,22090,-11227,15167,4963,-17513
5090,10859,27095,-7023,8906,-9,-18805
5100,7345,30669,-5798,5922,-4685,-17252
5110,8174,27766,-3446,4160,-9259,-11598
5120,8444,22581,-5327,3285,-11020,-9381
5130,8721,17762,-6540,1674,-13412,-6669
5140,8895,10042,-8540,-1646,-16830,-1862
5150,8823,6361,-6779,-4093,-17349,-140
5160,8767,2131,-4829,-6138,-16218,1429
5170,7866,-2958,-1730,-8030,-15238,3273
5180,5900,-10627,4584,-10236,-18681,8745
5190,4795,-12353,3992,-8919,-19668,11730
5200,3779,-10919,210,-7119,-12613,15824
5210,2355,-8666,-854,-8212,-8370,16126
5220,1621,-7639,-602,-10185,-5388,15988
5230,2387,-6356,981,-12281,-3442,15629
5240,5238,829,15599,-11567,-2954,9812
5250,3271,9069,17256,-3154,-7022,2636
5260,3347,16771,14114,7020,-5689,-4035
5270,2513,23008,4689,15730,3100,-9443
5280,2605,18606,-15110,30093,9405,-16630
5290,3649,14270,-13096,27373,9939,-15649
5300,6546,9924,-7532,20829,12430,-11161
5310,31823,18575,20053,5960,14398,297
5320,24156,23104,-9675,7440,-9002,-131
5330,21195,24016,-17700,5979,-18391,1373
5340,10949,3134,-11048,-1163,-5889,5288
5350,7220,-1542,-8386,-2866,-1802,4688
5360,7844,-3126,-6320,-3504,-1565,4778
5370,18303,7506,-12402,-2590,-1600,6309
5380,23339,13056,-14361,-359,-2236,14566
5390,29515,17700,-15689,-227,-4313,19985
5400,21991,23535,-8329,-4275,-5188,13898
5410,20797,26484,-6458,-3818,-6576,14161
5420,14982,32748,7259,1051,-1939,11699
5430,2388,32748,32497,11062,7805,11316
5440,544,32748,17699,28837,24024,15384
5450,-3804,32239,-701,22033,18225,17327
5460,-5029,25983,4873,-2473,2759,14101
5470,-1976,20938,6753,-10329,-7934,12049
5480,-189,16333,3945,-7732,-7835,9634
5490,-1739,6926,2038,-1029,1013,5540
5500,-4463,3495,883,345,2829,5134
5510,-6884,1940,1061,636,2116,5198
5520,-12255,4173,1616,130,-54,2880
5530,-13843,5065,1859,-1029,-793,260
5540,-14105,5598,2575,-2825,-945,-2441
5550,-8808,6258,1301,-6957,-416,-6912
5560,-5611,5971,173,-9241,-1515,-9541
5570,1729,7192,534,-12065,-1601,-12560
5580,5014,9629,195,-12108,-238,-13751
5590,8542,14256,-177,-11691,1268,-15321
5600,12532,24863,167,-10677,3408,-19883
5610,13331,27970,1551,-9833,3079,-21175
5620,17196,30114,4134,-8631,2114,-21103
5630,30541,32748,10037,-6586,7440,-21916
5640,32748,32748,8710,-4061,14040,-22761
5650,32748,32748,3139,7417,13247,-14877
5660,32748,31224,-2093,13723,8306,-12273
5670,32748,26752,-9133,19238,8231,-13836
5680,16056,24138,-6665,21385,9011,-23590
5690,8428,27322,-3350,17458,8327,-23117
5700,6862,29843,-1574,16000,2789,-18843
5710,5451,29159,-1918,13821,-2463,-15405
5720,5858,22660,-10289,3274,-11913,-8963
5730,6695,18086,-8895,-4413,-16469,-5632
5740,7567,13309,-7149,-9538,-18261,-2499
5750,7793,2780,-3704,-12440,-18210,-26
5760,7160,-3169,-1524,-16080,-16641,4120
5770,6277,-8620,1753,-17384,-15792,6548
5780,4761,-12058,2394,-16987,-16003,9179
5790,1772,-13700,761,-12187,-17347,13921
5800,1139,-12653,560,-9899,-15692,16429
5810,1205,-12311,295,-6900,-12944,18943
5820,4678,-10225,-95,-537,-7907,21278
5830,7290,-8277,-418,427,-4514,20292
5840,9177,-4545,-1221,-1213,171,16745
5850,8731,10280,16089,-8515,290,2271
5860,6902,19973,24106,-4190,-84,-3555
5870,3756,24864,15464,7413,2686,-7574
5880,3270,14044,-17022,29036,-965,-14324
5890,3872,7170,-15908,27875,-3090,-16491
5900,3414,3908,-10293,21845,-2412,-16744
5910,9664,4380,-1260,14336,4091,-14036
5920,23707,22680,-4025,-3414,20758,-3378
5930,29652,26653,-6987,2266,2584,1318
5940,28178,14686,-6557,8236,-5215,7113
5950,16798,975,-8721,10527,-2697,5157
5960,17706,4181,-11644,7747,-1490,3963
5970,17183,7089,-12523,3900,-875,6108
5980,18821,8765,-13282,311,-2375,11501
5990,29829,13570,-10854,-7215,-6069,19387
6000,32518,16737,-8326,-9204,-3725,19380
6010,32748,19573,-5249,-8147,859,18180
6020,30175,26379,-9325,-710,4629,13804
6030,27511,30865,-10726,8,2574,12468
6040,23146,32748,-9347,-919,1886,11698
6050,18335,32748,-7551,-1035,698,11118
6060,5457,32748,2281,4330,-12276,11255
6070,-3487,32748,16899,11897,-14833,12966
6080,3601,22427,25953,32665,6798,22806
6090,2793,23534,5874,30999,20553,19540
6100,-7599,23644,4296,10447,15401,13274
6110,-1607,11534,10451,-7977,-3223,11436
6120,-2882,6533,4081,-2883,-5128,7477
6130,-4537,3823,-199,-865,-1406,5090
6140,-6163,1737,-2076,-172,1756,2385
6150,-12653,53,635,-224,6250,-3493
6160,-15706,1316,3731,-385,8153,-5230
6170,-16594,4199,4668,-160,10185,-6055
6180,-10332,8531,2063,-2623,5464,-9758
6190,-7133,8393,1604,-5990,1838,-12760
6200,-2732,7383,1448,-9507,-504,-14335
6210,679,6664,1446,-12190,-1301,-15195
6220,5665,9568,314,-14322,1614,-17176
6230,8127,14695,-326,-14227,3911,-19088
6240,10316,21024,-757,-13680,5666,-21456
6250,12245,27196,-783,-12799,6468,-23602
6260,18364,32748,2800,-9719,4745,-25514
6270,28740,32748,12091,-6789,5817,-24894
6280,32748,32748,21703,-1090,15738,-24453
6290,32748,32748,6724,19672,28258,-16558
6300,13400,23808,-8794,8411,-1132,-20106
6310,11976,28374,-4764,4187,-5758,-17537
6320,9458,26274,-3515,3876,-8520,-11646
6330,9077,20992,-4943,2972,-9644,-8547
6340,9179,16603,-6405,701,-11725,-5106
6350,8183,9851,-5853,-3906,-16118,1159
6360,6564,6332,-4930,-6226,-15931,2750
6370,5348,2270,-2913,-8090,-14832,4309
6380,4990,-1629,-882,-9500,-13337,6802
6390,4149,-9125,1238,-8763,-13472,11926
6400,2787,-11652,1199,-5900,-12271,13968
6410,2454,-12318,-423,-2684,-9713,16028
6420,1323,-12372,-1191,-1543,-6861,18198
6430,2463,-8800,-1259,-6583,-1868,20904
6440,3717,-7792,-254,-9897,58,19969
6450,4748,-6475,1489,-12022,561,17379
6460,6446,6440,16188,-8731,-4369,5764
6470,5996,16831,22980,-340,-4383,-2732
6480,2261,23616,16903,11369,1425,-9867
6490,2133,16975,-21585,24873,-4163,-15706
6500,3737,13248,-20192,26857,-6118,-16107
6510,2683,8023,-11017,18380,-1136,-14805
6520,2507,2591,-2813,11602,8647,-9755
6530,30654,13410,14592,1534,24885,4130
6540,21366,17776,-9336,6846,-6760,2533
6550,30624,16428,-16768,8758,-13904,11427
6560,19095,5620,-14839,6240,-2195,7863
6570,8681,357,-11839,2346,2716,1928
6580,5371,-518,-9542,-1327,1753,1333
6590,19011,10483,-13009,-4244,-719,11531
6600,25834,14723,-13563,-5330,-1859,16828
6610,30851,17239,-14436,-6806,-2578,20561
6620,29842,17705,-6558,-8430,-3658,19604
6630,28793,17489,-3947,-5881,-2838,18170
6640,28499,19485,-4910,-2242,-2475,16573
6650,25756,22101,-6652,311,-2165,14655
6660,23487,29935,-6152,1903,-1359,13228
6670,21127,32748,-3912,3020,-1700,12011
6680,14847,32748,4319,5240,-1199,10256
6690,276,30318,19255,27730,20347,17838
6700,3021,27476,8805,32732,23729,22394
6710,-2824,29606,24,25633,17780,18754
6720,-3296,19578,7971,-5850,354,12365
6730,-3848,13437,5926,-5159,-2331,10847
6740,-6537,8935,2931,-2249,-2904,8987
6750,-11197,4086,-1171,215,-3759,5486
6760,-13282,5113,-1324,-639,-2114,2822
6770,-15176,5830,-296,-2649,440,-495
6780,-13931,6369,3470,-5544,1848,-4880
6790,-10993,6692,4356,-6227,1705,-7237
6800,-7879,6867,2547,-7248,943,-10423
6810,935,7279,1170,-11912,-1419,-14463
6820,4254,8314,700,-13708,-1434,-15487
6830,7351,10598,456,-14616,-841,-16735
6840,11008,15272,121,-14589,661,-18413
6850,15190,26460,-299,-12514,3281,-22385
6860,16859,29950,333,-10774,1363,-23293
6870,20642,31949,1836,-9236,0,-22948
6880,32748,32748,7476,-6954,10103,-18863
6890,32748,32748,10203,-3918,18803,-16461
6900,32748,32218,8547,4369,22817,-11464
6910,32748,26976,2033,16320,18516,-7395
6920,32689,13303,-8437,23844,12126,-13770
6930,23875,17933,-8781,18315,6267,-18508
6940,16044,24184,-8796,12724,175,-19293
6950,12603,29416,-6215,7154,-8504,-14219
6960,12105,26922,-7759,5880,-9331,-10842
6970,10048,21085,-8381,3398,-10218,-9262
6980,11583,11703,-8514,-3151,-14760,-3413
6990,11438,7894,-8094,-6056,-16369,-1237
7000,8912,-1358,-3351,-8813,-16117,68
7010,6854,-6926,-603,-12344,-12550,3050
7020,5264,-12008,2962,-13140,-12702,5920
7030,4813,-15417,4654,-12549,-14155,9349
7040,129,-17553,5520,-8852,-11617,14433
7050,1080,-16045,3675,-7765,-6878,16926
7060,2491,-13252,3175,-7901,-3675,18323
7070,4110,-8630,5774,-8851,732,13851
7080,3721,-2247,6895,-7796,963,9080
7090,3887,5120,9755,-5676,-3336,3752
7100,5302,12851,11903,-1746,-6907,-756
7110,3253,26668,7519,10834,1058,-10048
7120,1540,26873,-5476,22748,5520,-14555
7130,3058,22227,-17248,30913,8084,-16421
7140,8798,13411,-12238,22650,6989,-13225
7150,22023,14515,4529,15133,12463,-7081
7160,32748,24677,17157,9924,19462,642
7170,32748,19532,-3852,9473,3943,2337
7180,5575,-1926,-6364,-1550,-5663,2522
7190,6122,-4422,-5573,-3774,-5962,7414
7200,29737,8640,-15761,-5573,-3092,19071
7210,32748,12545,-14863,-6685,-4198,20899
7220,32748,15420,-13334,-6611,-3474,20527
7230,28550,19976,-11315,-4860,-801,16966
7240,27056,21761,-10818,-4446,-2987,15563
7250,25812,24204,-9444,-4108,-5952,14202
7260,21794,32472,-5600,-1376,-2557,13717
7270,20651,32748,-1751,788,-697,13874
7280,14625,32748,12453,4634,-582,13646
7290,3792,30853,23644,18000,3540,14938
7300,3456,32587,1349,32053,17588,21067
7310,-7155,29519,-3734,12969,13797,14234
7320,-5183,22367,6453,-11475,-2690,11368
7330,-4539,8279,9747,-3030,-8448,10380
7340,-7701,6896,3193,4953,-3768,8400
7350,-10812,6462,1102,2862,-447,5543
7360,-14413,5455,610,-4185,2789,-33
7370,-13247,5878,938,-5575,1746,-2152
7380,-11607,6430,1160,-6505,539,-4590
7390,-10065,6707,1445,-7593,-82,-7228
7400,-2896,6401,236,-10987,-820,-12079
7410,570,5615,-225,-12843,-661,-14441
7420,6311,7648,870,-14824,1547,-16848
7430,9950,11955,1168,-13965,2725,-17930
7440,13084,17856,727,-12222,3804,-19695
7450,14918,23366,770,-10464,4957,-21632
7460,16946,27876,764,-6987,5688,-24055
7470,22313,30841,3458,-5236,5286,-24691
7480,32747,32748,11963,-3282,9033,-25444
7490,32748,32748,8897,5480,24767,-25927
7500,32748,32748,4504,12670,18445,-18409
7510,32748,31906,-7907,21344,13203,-10320
7520,32748,24976,-16351,23125,6599,-8681
7530,19313,24387,-12587,13323,-3751,-23926
7540,14303,29740,-7628,11324,-3968,-23694
7550,13139,30961,-3802,8861,-5184,-20261
7560,9135,24075,-6828,5363,-8591,-15859
7570,9168,20157,-9460,-6174,-17994,-7724
7580,9526,15878,-9733,-13323,-21234,-4057
7590,8797,10752,-9489,-18074,-21788,-1270
7600,4472,-1908,-5554,-21422,-18872,3064
7610,4700,-9148,-3250,-21163,-18335,5826
7620,5228,-15017,-936,-20340,-18020,8509
7630,2368,-20793,2482,-16805,-14681,12710
7640,939,-21815,1886,-13765,-12668,14807
7650,1264,-16808,-235,-8909,-9858,16368
7660,2430,-14293,920,-7917,-7391,16101
7670,3748,-11534,1849,-7408,-4269,15311
7680,6245,-9351,5745,-7009,-649,13813
7690,6800,3100,11068,3600,-818,4544
7700,7576,9544,12458,11776,-3323,296
7710,10197,16835,12542,18484,-1990,-3246
7720,5762,29651,7239,17828,5366,-10341
7730,395,29409,-4056,19062,3695,-12398
7740,-622,23652,-15824,20448,1293,-11885
7750,3867,5658,-8303,15389,2856,-8594
7760,9349,1586,-3321,13062,10506,-4660
7770,32733,6251,7575,9344,16380,583
7780,32748,12061,-5716,7261,4284,4739
7790,25887,98,-10556,8909,-10587,8256
7800,16080,-4881,-8503,5102,-4068,3983
7810,12007,-6126,-5868,1977,-945,1422
7820,16237,-3185,-6264,1559,748,4049
7830,27332,2107,-5987,5180,-281,19797
7840,32280,3621,-5538,7126,-3113,24861
7850,32748,6014,-5929,7927,-2970,25830
7860,32748,11576,-8624,8456,5404,18729
7870,29009,14374,-12841,8346,8106,16413
7880,31437,30395,-30041,329,3831,15821
7890,32319,32748,-31450,-10187,-4450,14300
7900,30099,32748,-23484,-20118,-12615,13656
7910,26766,32748,-9336,-24849,-17597,13675
7920,6470,32748,30476,17422,15330,15661
7930,6222,32361,4261,32685,30709,19866
7940,4052,21158,24058,32766,17030,19072
7950,-111,21888,5190,834,8703,15553
7960,555,18725,12917,-16140,-9151,13778
7970,-290,14289,13494,-9532,-10000,13431
7980,-3366,8858,11948,691,-4995,12405
7990,-10090,7448,-1085,6798,-950,10511
8000,-16229,9458,190,1972,-515,8344
8010,-18146,12838,-626,-1665,-537,5669
8020,-9918,10511,-3632,-5481,-2229,-2104
8030,-11261,7708,-439,-7379,-675,-7251
8040,-13653,5459,2976,-8356,3518,-10063
8050,-6434,5801,4166,-6996,10188,-8549
8060,-1913,6123,2084,-6405,6693,-9696
8070,459,5924,775,-7175,2030,-11575
8080,3072,7762,-503,-8846,186,-12946
8090,8374,18064,-1286,-11424,1812,-18532
8100,24015,32748,2336,-9988,7024,-32766
8110,32748,32748,9988,-8689,13513,-32277
8120,32748,32748,18515,-2435,21433,-25376
8130,32748,32748,-8693,31676,20057,2944
8140,32748,28718,-14502,32759,2824,-6540
8150,32748,19393,-25522,29811,-1755,-24155
8160,18083,23413,-11404,6031,-9232,-25945
8170,20509,24674,-2251,-1248,-8208,-19275
8180,14910,21795,-1942,-4307,-8767,-16409
8190,11347,18723,-7073,-6236,-13156,-12990
8200,8741,10348,-7762,-17819,-18805,-6740
8210,7303,5714,-6886,-22502,-18454,-3982
8220,4518,-952,-6073,-25480,-17240,-1685
8230,3035,-9440,-4788,-27418,-15626,994
8240,8077,-23225,-3613,-30212,-13548,7783
8250,10275,-25800,-2753,-29464,-15249,9168
8260,7720,-24495,-4500,-25106,-15507,8785
8270,2545,-21773,-6937,-12896,-8285,7254
8280,1338,-22554,-2762,-7567,-4665,6898
8290,-338,-25865,5874,-3520,-2716,6648
8300,1913,-27044,15372,742,759,7525
8310,711,-4735,13301,9659,-2490,5752
8320,5320,6733,12190,8791,-9710,5186
8330,11904,24823,3557,7285,-8457,3983
8340,13942,30494,-1866,6084,-7625,1884
8350,14018,32748,-4782,6785,-5810,-2437
8360,5100,18858,-996,22159,14099,-13189
8370,2535,7196,4773,30567,22223,-14935
8380,32748,7050,6927,28976,18075,-10787
8390,32748,9288,-17971,14065,-5940,-7295
8400,29602,8533,-20473,10598,-9251,-1945
8410,13525,-3273,-8040,4356,4976,5756
8420,12878,-2774,-5721,4513,5126,9146
8430,16008,-198,-5751,6191,2415,15757
8440,19814,1460,-6867,7728,-2558,23152
8450,30142,4281,-7704,8506,-9510,31168
8460,32748,9024,-9730,9226,-9269,32002
8470,32748,16092,-15330,9420,-6354,30692
8480,32748,32586,-31311,961,1860,18925
8490,32748,32748,-32748,-10110,332,13503
8500,31755,32748,-21959,-20937,-5060,11601
8510,18461,32748,10012,-23961,-7544,12746
8520,7399,32748,32764,-1656,4425,15660
8530,-524,32748,24430,23791,28896,16284
8540,-9961,17176,12152,32347,15140,18137
8550,-9285,20061,-1197,14906,8079,15815
8560,-4172,15758,6503,-11767,-4679,12488
8570,-2261,5996,4566,-3844,-4438,7209
8580,-6068,660,2189,1574,-1385,5444
8590,-8721,-2129,1362,3983,-859,6038
8600,-11695,-1724,87,4611,-135,6924
8610,-14227,6502,-1721,2847,4037,4350
8620,-14846,10036,553,2387,4528,1187
8630,-13696,12113,3368,2882,4517,-1543
8640,-4552,8939,2645,2632,3355,-6389
8650,-3309,6877,1418,-4943,-1791,-8563
8660,-2652,6365,539,-8850,-2790,-10077
8670,-2972,7645,-925,-10849,-1441,-11399
8680,-311,11017,-2998,-11441,2428,-15713
8690,2565,12838,-3316,-10693,3664,-19529
8700,6214,17466,-4961,-9905,4136,-23656
8710,12227,29226,-3872,-12234,-166,-31303
8720,18479,32748,-2945,-13571,-3042,-32634
8730,31976,32748,41,-14844,-6217,-32766
8740,32748,32748,23523,-16681,-6604,-31663
8750,32748,32748,22845,-2394,9502,-20221
8760,32748,31184,-2547,25725,20152,-950
8770,32748,-5074,-19434,32329,17078,-7570
8780,19158,-5809,-20749,23413,5186,-14908
8790,16782,3734,-12738,8666,-13436,-15876
8800,13344,12885,-5750,227,-16619,-15718
8810,4883,21474,-1491,1129,-7664,-12692
8820,392,18902,-6869,3878,-10581,-9998
8830,-1858,14047,-13234,1885,-13152,-6002
8840,4404,-987,-6146,-14224,-13439,1667
8850,6652,-10351,-2964,-20284,-13169,3928
8860,7878,-16811,-3052,-24095,-12312,6316
8870,5134,-22911,-2713,-27081,-11363,10657
8880,2045,-22461,-1179,-29323,-8316,11898
8890,103,-22127,454,-26987,-6137,12668
8900,-967,-21372,1690,-23298,-2500,13890
8910,2594,-18926,8577,-17299,6102,16946
8920,5552,-14350,12106,-13387,7054,14456
8930,3138,-6954,14922,-8019,1835,8099
8940,8131,10502,16437,6974,-12627,1024
8950,10327,18722,10634,13400,-9412,-1817
8960,10337,23779,1742,17699,-5361,-5856
8970,3918,18274,-12096,19689,5073,-15216
8980,18432,11734,-17812,18577,11671,-10707
8990,25140,10345,-19224,12860,-17282,-7858
9000,32748,3603,-16235,10559,-5963,9241
9010,32748,-1460,-13926,8227,4371,8715
9020,28752,-1926,-12667,7151,3207,6420
9030,25678,-1795,-13452,7478,-3135,10538
9040,22639,90,-11441,2178,-4938,18530
9050,28941,4566,-9113,-1298,-2201,19673
9060,32748,9122,-11226,-1469,1789,20955
9070,32748,19614,-24711,-5676,4275,22282
9080,32748,26197,-28192,-14237,-510,19785
9090,32748,32575,-21637,-23770,-9536,16615
9100,32039,32748,-10059,-28630,-15256,15532
9110,12292,32748,32764,-18284,-16290,20568
9120,5974,32748,32764,14143,4420,25321
9130,10249,29344,2615,32643,23974,27550
9140,-5163,23263,7720,32221,25585,15644
9150,-13337,22915,284,15593,24230,11294
9160,-8767,17783,5777,-8666,1519,8763
9170,-5627,6937,8013,-14529,-7870,8817
9180,-7771,3542,3510,-2052,-4829,6545
9190,-10231,2237,-745,2020,-4574,4849
9200,-11563,5861,-119,-1187,-2837,1271
9210,-9199,6996,1076,-3258,-900,-777
9220,-7187,7429,3337,-3967,900,-2974
9230,-4131,8364,9435,-2983,5866,-6610
9240,-2766,8959,6225,-1989,6519,-7926
9250,-980,8485,1287,-3581,4606,-8943
9260,2654,8883,-4276,-10218,1738,-12169
9270,7363,13045,-5240,-11791,364,-15680
9280,11485,18960,-5451,-12328,-1937,-21493
9290,11369,28951,-5252,-12250,-3053,-28438
9300,9878,31618,-3955,-10867,-1942,-32766
9310,15937,32748,334,-9913,-3050,-32765
9320,32600,32748,12461,-8118,-1549,-32682
9330,32748,32748,11035,8120,23046,-30557
9340,32748,32748,8919,15462,20352,-21502
9350,32748,30732,-3178,28733,16794,-9240
9360,32748,23004,-9433,32761,9664,-7217
9370,28144,16586,-14386,32321,3156,-20707
9380,16858,20859,-19792,27590,-3095,-23018
9390,10223,26451,-19915,17625,-11067,-19868
9400,8170,28836,-1605,-6310,-13859,-10475
9410,8925,22193,-3082,-11303,-15494,-7670
9420,10607,14011,-5896,-15739,-19083,-4329
9430,11775,-983,-7008,-26530,-22575,2388
9440,8711,-8955,-5277,-30778,-20195,4481
9450,6004,-16368,-3336,-32695,-16197,7520
9460,3390,-24422,-4206,-32766,-14376,14575
9470,1616,-23660,-4754,-32766,-16434,16486
9480,-1145,-22778,-4771,-32761,-17453,17332
9490,-2931,-25268,-879,-26105,-16979,20420
9500,-3716,-26436,1916,-20067,-13247,22664
9510,-1733,-26791,6603,-13838,-4635,26273
9520,14830,-15900,16096,397,12087,21998
9530,8125,-3550,16153,7888,6172,6376
9540,9683,7810,14678,11594,-3056,-3919
9550,14523,19798,13490,13460,-3462,-6607
9560,13480,29368,-7176,29555,5964,-13077
9570,7106,21910,-21452,32722,7444,-17315
9580,1579,13027,-21830,31896,6716,-20328
9590,492,6201,-13871,27088,3877,-20475
9600,23841,6871,3354,13147,13191,-18400
9610,18654,7180,-9335,7419,16570,-19729
9620,24341,7773,-10420,6906,1060,-23470
9630,23791,10236,-6345,7271,-11720,-8914
9640,23711,8033,-10847,10961,-8965,5745
9650,15276,5178,-15918,8506,-8811,13224
9660,16391,4239,-14912,3410,-8432,16982
9670,24011,6419,-10741,-1657,-7212,19644
9680,30353,9085,-7455,-3582,-2518,20535
9690,32748,15277,-11778,2802,4340,19115
9700,32748,20132,-17729,5546,3689,18334
9710,32748,27548,-20184,3776,57,17656
9720,32452,32748,-19250,-3600,-2927,15023
9730,28535,32748,-13597,-7045,-6994,15693
9740,19771,32748,32023,-7254,-10535,17391
9750,6049,32748,8736,32483,25604,27936
9760,5011,32745,5790,31418,13847,26461
9770,-4703,27883,6336,10027,10046,19872
9780,-5227,15527,12876,-9751,-5887,16438
9790,-7977,9753,8527,-2577,-10447,13090
9800,-11221,5996,4027,-1443,-7354,10072
9810,-12019,5908,281,-3584,-4040,7782
9820,-10273,5164,624,-6734,-996,2245
9830,-12369,3520,2546,-5086,617,-1027
9840,-13751,3126,3493,-3120,2798,-3045
9850,-10644,4694,4242,-2298,4777,-3653
9860,408,6520,1591,-9435,6075,-12111
9870,716,7911,924,-10571,6624,-13894
9880,6701,15624,-1985,-11308,5999,-20213
9890,10351,20126,-1939,-11941,3907,-26270
9900,11554,24029,-496,-12531,2021,-31761
9910,10643,27845,7444,-12517,1472,-32766
9920,31105,32748,17634,-7968,8382,-32766
9930,32748,32748,10225,-1461,16308,-32756
9940,32748,32748,7768,3443,13765,-30322
9950,32748,32748,-10680,28397,16750,-6375
9960,32748,26120,-18009,30867,7693,-8308
9970,31760,16743,-18799,21506,1430,-18996
9980,16158,17167,-15154,10866,-2201,-24139
9990,14436,22386,-2095,-307,-10804,-14998
10000,10804,21104,-3246,-482,-12053,-12017
10010,8559,17355,-5802,-1173,-14170,-8815
10020,5668,9682,-7051,-8097,-17609,-1772
10030,4209,5248,-4580,-13172,-18247,1283
10040,3056,-547,-3062,-16147,-17392,3689
10050,3061,-6497,-2068,-18158,-16348,5846
10060,3755,-13946,-827,-18062,-15868,10774
10070,5636,-16635,-3545,-16071,-15409,13122
10080,2478,-20382,-1172,-16828,-11586,13734
10090,1972,-19492,-484,-16002,-9190,13416
10100,1370,-19150,1321,-13770,-7272,12670
10110,5698,-13866,7143,-11601,-4687,12087
10120,4964,-7499,7859,-7023,-2769,6304
10130,5489,-547,8180,-3435,-6494,2035
10140,8285,6981,9111,624,-8066,-116
10150,10345,22011,7316,7861,-2900,-4729
10160,7433,27579,5742,9632,-637,-8209
10170,4164,29820,-2366,12905,1990,-11663
10180,1534,12461,-3947,19477,16723,-14435
10190,4557,-2816,2583,23461,24528,-10927
10200,7285,-12968,983,26403,25796,-5204
10210,32748,-30777,29807,15309,20729,2375
10220,31300,14141,-32748,-6853,-25484,6535
10230,32748,28886,-32748,1118,-30456,9339
10240,32748,26524,-32211,4508,-27054,9706
10250,16234,11553,-10206,3890,5273,3207
10260,11593,9694,-6764,7680,2554,5185
10270,13515,9933,-5452,11044,-2371,9643
10280,20139,12968,-5175,12166,-3926,14277
10290,31563,14577,-5540,12243,459,20567
10300,32748,18105,-8382,12887,2013,23621
10310,32748,25609,-8357,11956,1986,17952
10320,32748,31264,-9622,11140,7119,14662
10330,32748,32748,-9374,9527,12074,13421
10340,29136,32748,-7509,7477,15220,13078
10350,10519,32748,4537,6694,11357,16840
10360,-10848,32748,28928,14127,4494,20184
10370,-13140,29747,29331,29483,3299,25977
10380,-16669,24108,4228,31133,12370,13374
10390,-11626,18804,7770,-5394,1135,9150
10400,-9001,13339,6478,-8302,-4710,8648
10410,-8323,8868,972,-4842,-4237,6101
10420,-7957,1587,-3950,-3683,-4259,530
10430,-7482,409,-2946,-5205,-3988,-610
10440,-7291,390,-1268,-5910,-3583,-1378
10450,-7764,2752,2087,-4520,-1204,-2511
10460,-7186,5813,3093,-2929,224,-2721
10470,-5770,8429,3165,-1263,1056,-3031
10480,-2337,6078,2622,-1534,3151,-5584
10490,-1042,3747,4343,-3409,4575,-7703
10500,132,1986,5333,-5101,7658,-9508
10510,926,1840,3743,-6185,11182,-11142
10520,1820,8092,-3942,-6928,11765,-15574
10530,5018,12099,-5936,-7594,10506,-19138
10540,13108,29487,-6831,-10210,9659,-30170
10550,13664,32748,-5953,-11699,7698,-32715
10560,14767,32748,-2988,-12749,3493,-32766
10570,32748,32748,32764,-3839,1260,-31389
10580,32748,32748,14440,11504,12305,-26274
10590,32748,32748,10307,19216,16555,-15756
10600,32748,23398,-2402,29523,23291,-7124
10610,31125,7922,-2283,26826,18577,-15123
10620,18503,12134,-7449,25105,13347,-18843
10630,9757,13421,-18952,22303,862,-16426
10640,14441,22125,-13347,1467,-28020,-3818
10650,9784,22785,-6747,-4518,-22951,-3396
10660,5720,20324,-128,-6701,-13612,-2940
10670,3551,10245,-8,-4374,-7445,-144
10680,4924,5476,-3028,-4542,-12210,2100
10690,6348,1003,-3906,-7282,-15051,4052
10700,7132,-8920,-1848,-17602,-11519,6650
10710,6017,-12091,256,-22657,-12074,7481
10720,3438,-13991,1254,-25823,-13647,8011
10730,1796,-15128,4513,-23993,-7776,14962
10740,12534,-13061,20944,-17414,1202,11891
10750,5753,-1284,19240,-7964,546,890
10760,887,7317,3768,3733,-3138,-6128
10770,5696,13671,-17413,19391,-7684,-10252
10780,6396,12255,-15957,24152,-5772,-12823
10790,5038,10038,-10892,24667,894,-15150
10800,25682,22320,13272,23492,10093,-15497
10810,32748,32748,6158,31966,27269,-11333
10820,32748,24569,-11367,30324,19618,-1180
10830,28598,10449,-12389,19927,6607,7428
10840,17236,2466,-9610,4478,1435,13046
10850,16996,2469,-9106,-877,484,15463
10860,19537,3791,-9980,-6959,-385,17922
10870,30798,11566,-13055,-18542,-2645,22389
10880,32748,16559,-14334,-21983,-3873,24466
10890,32748,22487,-18073,-23799,-4698,24978
10900,32748,29299,-21835,-26165,-6630,23472
10910,29896,32748,-14615,-32639,-20156,18045
10920,25066,32748,-5161,-32551,-25331,18095
10930,19963,32748,5895,-28159,-27171,17212
10940,2979,29310,19959,24113,14313,19134
10950,2737,23183,-1213,32766,18466,18648
10960,-5795,15699,11815,32766,8425,15241
10970,-7543,15165,7911,196,9414,11796
10980,-3145,10979,7490,-16441,-10045,8566
10990,-3271,7965,3836,-16677,-14454,7539
11000,-4524,4109,-857,-9515,-11377,5898
11010,-5375,2466,-196,-8792,-8779,4126
11020,-7062,1245,944,-8024,-6090,2558
11030,-8147,336,1089,-6431,-3206,1519
11040,-8532,318,717,-3850,326,-260
11050,-8052,2966,2100,-3298,654,-1295
11060,-4716,6317,4954,-2991,300,-2939
11070,410,6447,5534,-4574,3352,-8170
11080,2122,5120,3029,-7326,5566,-10203
11090,3078,4718,952,-9513,6727,-12023
11100,5594,10368,-4108,-10449,7800,-16599
11110,8732,15145,-4538,-12362,8218,-20528
11120,11146,21030,-5072,-13224,8570,-25478
11130,11386,26637,-4929,-14108,8446,-29880
11140,13386,32748,-319,-12859,3198,-30638
11150,32748,32748,21437,3478,8836,-25545
11160,32748,32748,9581,23617,22762,-19546
11170,32748,31931,-8515,32518,29458,-1854
11180,32748,20104,-9646,32765,627,-13817
11190,21778,17742,-15245,32264,-597,-21638
11200,14625,19684,-13936,23620,-6196,-19796
11210,16511,24435,-5402,4244,-17263,-9655
11220,15421,21622,-4160,-546,-18359,-7192
11230,13735,17130,-5724,-3671,-17408,-5172
11240,11457,5706,-2800,-9989,-16943,-895
11250,10910,351,-471,-12732,-16021,1094
11260,10300,-4760,1197,-14979,-14066,2640
11270,8714,-9574,1230,-16947,-12305,3924
11280,6105,-13720,-70,-19790,-14144,7403
11290,3773,-16026,1433,-20732,-13732,9417
11300,1927,-16581,3626,-20637,-11933,10817
11310,-363,-16916,5671,-15821,-7316,14325
11320,-443,-17476,7774,-11303,-4471,16818
11330,239,-17798,9492,-4972,-1953,18237
11340,1844,-16633,10805,3215,-2413,17494
11350,1146,1017,10636,19457,-9482,3529
11360,2590,9185,-4687,24595,-8586,-2826
11370,5671,12974,-22273,27064,-11541,-6784
11380,3479,11576,-19762,19721,-14416,-13930
11390,2891,11356,-12821,14427,-10789,-14431
11400,5827,14534,-6751,10333,-6119,-14141
11410,32748,32748,-9359,14468,977,-9488
11420,32748,32748,32764,18652,7250,2136
11430,30177,18796,16861,29574,27462,-1614
11440,7016,-6315,-11675,12255,7208,-1064
11450,11848,-6167,-8248,-2831,-7956,10283
11460,20279,-3791,-5336,-9591,-14017,21102
11470,29010,-1611,-4216,-10731,-11978,27161
11480,32748,-585,-6130,-7222,2060,24869
11490,32748,719,-8849,-2809,3485,18615
11500,32748,6188,-17635,2706,2346,14622
11510,32748,20279,-32748,-4343,231,16240
11520,32175,25643,-27617,-16617,-4453,16387
11530,27315,29734,-17102,-25348,-9562,16808
11540,20522,32748,1510,-27065,-13748,17203
11550,19315,32748,28646,-9228,-23504,14895
11560,6708,29871,32764,16702,-465,10123
11570,4235,24236,17260,32486,31205,11129
11580,-4686,16975,12834,32766,32430,11846
11590,-11549,21690,-4137,31810,32685,10827
11600,-9360,8489,-2258,-9877,-10135,4966
11610,-7205,5093,-3692,-7456,-9815,-6797
11620,-7923,3237,-2217,-7758,-8870,-13111
11630,-9090,2735,1077,-8214,-7172,-17512
11640,-12010,1717,6716,-4574,1881,-21959
11650,-12029,2296,5616,-1208,8182,-21212
11660,-3563,5317,2954,857,10309,-17684
11670,3789,11621,-662,-1912,2495,-16992
11680,4792,15920,-2432,-5152,305,-18649
11690,7715,21730,-3524,-8225,1350,-19942
11700,19975,32748,308,-11975,3226,-22545
11710,31301,32748,6385,-11197,1970,-25185
11720,32748,32748,14794,-7024,1491,-27186
11730,32748,32748,20388,2038,9924,-21116
11740,32748,27810,2435,32075,30943,9179
11750,32748,14682,-352,32765,15372,5734
11760,32748,3392,896,32766,8381,-11276
11770,19189,11193,-10956,32762,10604,-22360
11780,17702,18162,-12682,18133,-10738,-13914
11790,13502,20693,-5646,2830,-14236,-9971
11800,10502,20224,-1905,-6253,-12994,-6080
11810,6042,9966,-4787,-10248,-12758,503
11820,6506,3705,-4677,-11820,-12875,4299
11830,6553,-7188,-1450,-15078,-7463,9253
11840,4599,-13226,-2249,-15871,-3346,10573
11850,2462,-19105,-1458,-17334,-1396,11753
11860,-4999,-23510,5651,-15649,-473,13027
11870,-5624,-20820,5291,-8273,-172,12883
11880,-6385,-17831,3995,-1038,372,12976
11890,-6725,-17029,4572,1403,1211,15789
11900,-1378,-12124,1734,4607,2788,22880
11910,1933,-2457,7910,4358,339,19292
11920,2032,13708,14567,4259,-1801,8241
11930,5840,32748,-14735,16183,-21171,-14295
11940,1254,32748,-15553,24164,-11069,-23292
11950,-1853,32748,-22131,28506,8347,-23960
11960,1976,26440,-23079,25057,4784,-18654
11970,13382,455,32052,5890,-2891,-12920
11980,32748,-11694,32764,4195,16829,-10082
11990,23589,7048,-17351,6101,-9682,-7258
12000,25201,3556,-23412,-7658,-5261,-5338
12010,32748,3400,-13776,-13804,4484,-6497
12020,32748,4766,-7351,-13333,6865,-744
12030,32748,-724,-10371,7256,-2791,12988
12040,32247,-5978,-12470,12162,-8540,10599
12050,20997,-9775,-9425,11590,-9430,11434
12060,28165,-9335,-6192,8820,3137,13778
12070,30475,-5437,-5423,10195,8837,11936
12080,32748,-708,-8480,14745,11624,13073
12090,32748,12418,-16173,18766,14854,13377
12100,32748,22424,-20885,16106,20123,13239
12110,32748,32748,-28459,9202,25332,13602
12120,26633,32748,-21829,-12016,10441,12564
12130,21876,32748,-12451,-17209,-2247,15409
12140,18820,32748,-2177,-16322,-11703,15471
12150,10497,32748,16048,-8160,-21027,9773
12160,-12037,26813,22179,32198,12660,19852
12170,-13876,22390,6233,32765,29804,19193
12180,-22829,23507,-8584,32766,32765,12064
12190,-20284,10054,-5756,1396,14067,-3262
12200,-12262,7692,-2992,-17813,-5358,-5174
12210,-7911,4973,-26,-21718,-10468,-5265
12220,-9696,1802,476,-11864,-8353,-11660
12230,-11396,1670,1160,-8186,-5818,-14493
12240,-12831,2360,1202,-5603,-3341,-15192
12250,-4054,6481,2486,-4098,-1509,-12693
12260,-94,7645,2902,-4123,-2507,-14156
12270,2107,7756,2921,-4543,-2519,-16388
12280,5605,8146,1883,-6443,1909,-19202
12290,7627,11147,613,-7339,3801,-20816
12300,9707,15816,-884,-8056,5020,-22765
12310,17968,27943,-1549,-9889,6203,-25356
12320,25436,32748,-1198,-10786,3746,-26147
12330,32748,32748,1914,-11201,-547,-25230
12340,32748,32748,14234,-8313,-3422,-17682
12350,32748,32748,10117,28955,16083,-3166
12360,32748,20529,-9600,32766,21133,-4081
12370,32748,8001,-11028,32751,12682,-10983
12380,23855,6871,-6697,16546,-349,-16989
12390,19630,14311,-3460,7030,-5674,-15495
12400,15995,19904,-5827,3233,-7888,-13107
12410,11732,22456,-8775,1118,-9361,-11433
12420,2942,17973,-9591,-7072,-6264,-5349
12430,-466,11674,-8074,-11306,-4039,-2250
12440,2,4656,-6287,-14048,-3535,890
12450,3265,-9545,-5994,-17093,-5665,5120
12460,-2413,-21183,-3652,-29049,-8759,9332
12470,-2486,-19635,1441,-20866,-14609,9676
12480,-3908,-18167,3773,-13780,-12477,10658
12490,-3593,-17699,6858,-8513,-6928,14203
12500,5598,1721,32669,-6730,10479,14546
12510,732,13380,30146,-6725,5203,6346
12520,-343,21588,10257,1211,-3590,-975
12530,1414,23531,-18095,11495,-8586,-5607
12540,5894,21833,-18836,16083,-16453,-11795
12550,14641,17740,16663,17704,-1323,-12348
12560,32748,3534,32764,25845,25256,-14000
12570,17170,-4767,-20253,32470,-11911,-24288
12580,15027,-4559,-16666,25023,-14389,-21514
12590,21458,-3117,-14717,12393,-3137,-9959
12600,28041,-697,-13226,4270,5358,4036
12610,32748,5238,-12680,1960,-434,18676
12620,32748,4826,-14666,3252,-7077,19160
12630,32748,5044,-16909,1090,-7021,18672
12640,32748,11698,-11468,-6321,2751,19091
12650,32748,14908,-12407,-6542,6468,18301
12660,32748,19888,-14698,-7745,8821,18757
12670,32748,30641,-11034,-14191,9360,18100
12680,32403,32748,-7220,-14235,6230,16419
12690,24600,32748,-7855,-11265,152,15661
12700,8712,32748,24557,-3381,-19070,15496
12710,-1662,30119,32695,15295,-7703,16842
12720,2725,27139,12517,31855,12967,21393
12730,-5737,24350,450,28039,19820,13915
12740,-10135,19435,-2079,5539,10477,10598
12750,-6503,12777,3980,-9486,-2329,10855
12760,-5967,7801,7456,-10153,-6041,10498
12770,-9214,2134,7098,-2045,-2872,7469
12780,-11385,2520,4205,1085,289,5838
12790,-12275,4599,2451,2344,2636,3584
12800,-7790,9471,1590,2128,5189,-2066
12810,-5638,9096,1745,1078,6725,-4663
12820,-3834,8350,2425,108,7565,-6705
12830,-1677,6548,2336,-710,8206,-8562
12840,1087,3643,1708,-2929,7310,-11333
12850,786,3423,91,-4661,6814,-12304
12860,979,4460,-1361,-7009,6526,-13238
12870,7205,11665,-2662,-9989,3769,-18843
12880,12447,17908,-3135,-10145,919,-24747
12890,16872,30938,-4839,-10865,-3751,-32761
12900,17819,32748,-4986,-12046,-6628,-32766
12910,25592,32748,-3456,-13371,-10191,-32762
12920,32748,32748,13874,-13547,-10361,-30505
12930,32748,32748,14504,12959,23611,-19607
12940,32748,22343,8264,29930,24185,-13613
12950,32748,12503,-2701,32765,19162,-12043
12960,30316,8257,-12087,20128,1662,-18463
12970,26268,12899,-7785,7549,-7331,-18219
12980,25855,16267,-4748,341,-9698,-15708
12990,22487,16921,-3821,-1856,-9160,-12710
13000,14356,14356,-6382,-2075,-8085,-8103
13010,10157,10451,-6021,-3253,-6792,-6434
13020,7387,7005,-3395,-6123,-4495,-4254
13030,1889,-2145,-2970,-14343,-3987,393
13040,3181,-7293,-4531,-18438,-5963,3840
13050,4123,-11010,-5645,-21203,-7575,7274
13060,3432,-13581,-6261,-21479,-9161,9523
13070,-1742,-12358,-5188,-17504,-10607,12777
13080,-1588,-10903,-3537,-15887,-10866,15732
13090,-979,-11193,-1294,-14310,-11875,18514
13100,805,-12818,1434,-10805,-10955,24622
13110,2536,-13322,3962,-8513,-8945,27587
13120,15050,-2392,7294,-2798,614,21769
13130,13515,6591,18565,-2313,5837,8731
13140,10289,12564,10060,353,4415,-2852
13150,7670,15554,-4153,3828,-2655,-9945
13160,2618,12224,-11271,11882,-8026,-15453
13170,1048,10352,-6128,14779,-5974,-14885
13180,18564,11510,28182,16335,121,-13816
13190,18117,7755,-13118,32729,28801,-27594
13200,26941,16964,-18689,32728,6768,-24110
13210,30312,15373,-18171,28346,-5391,-10338
13220,28371,6625,-15156,16422,-717,5413
13230,12814,1159,-12772,-3372,8207,14284
13240,12134,3177,-14665,-10474,1610,15660
13250,18463,7183,-15126,-16972,-6909,17048
13260,26584,11323,-14487,-22810,-11051,19183
13270,32748,22042,-11175,-26007,-8882,22647
13280,32748,25786,-11693,-21484,-4625,21169
13290,32748,27942,-11278,-16810,-4572,18054
13300,27467,31204,-6418,-10245,-11881,13999
13310,22469,30578,-2578,-6778,-13875,13829
13320,7625,19951,9910,32445,32178,17904
13330,-2332,20487,-9045,19137,24017,12825
13340,-3215,16152,-4780,-5162,4959,10684
13350,-4196,12183,3528,-14139,-6067,11112
13360,-10533,7973,2517,-2688,-1833,8532
13370,-12885,6784,-1449,-793,615,5142
13380,-13996,6597,-3234,-2712,1406,1693
13390,-16365,8106,914,-7884,489,-4906
13400,-15664,8248,1952,-8633,589,-8211
13410,-7888,7154,2301,-9373,993,-10813
13420,3568,3426,3880,-11522,3320,-14180
13430,5951,1696,5351,-12142,5559,-14486
13440,8344,1702,6308,-12616,8126,-13908
13450,10081,3757,5305,-12396,9958,-13753
13460,12943,13190,836,-8409,12557,-18205
13470,15193,19011,-1022,-5896,13626,-22082
13480,16535,25214,-2961,-3998,14164,-26297
13490,14459,31977,-3090,-1792,8539,-31572
13500,21230,32748,-366,-228,5046,-29627
13510,32642,32748,6713,3281,6329,-25760
13520,32748,32748,2606,14515,15905,-20268
13530,32748,32748,-8404,32713,6345,-10463
13540,32660,25387,-13672,32446,-4311,-16232
13550,20712,23148,-16979,17960,-11308,-18545
13560,19184,25657,-7036,6882,-14670,-16236
13570,19451,26052,-1625,-1216,-17505,-11823
13580,18479,23180,-2188,-4956,-19511,-8443
13590,16020,12802,-6473,-9495,-21757,-1753
13600,13350,8728,-8584,-12059,-22055,870
13610,10580,3753,-5720,-15929,-21187,2429
13620,8326,-6458,3554,-20681,-13411,4750
13630,7576,-11005,4570,-20189,-12616,6256
13640,6259,-14262,4411,-19031,-13589,7899
13650,5539,-14622,1175,-15123,-14856,11476
13660,5026,-13878,-107,-13744,-12799,11998
13670,3018,-13114,664,-12250,-9063,10808
13680,2386,-13182,2046,-9625,-4174,9884
13690,8127,-11557,11814,-3967,3569,9094
13700,7413,-4351,17629,2826,3686,5060
13710,4231,4138,20276,12460,-1072,-81
13720,4124,19570,-14342,28602,-3272,-5716
13730,2106,22603,-32627,24998,-5019,-10838
13740,2636,23757,-31619,16822,-11461,-13448
13750,1406,12863,-12182,4318,-8221,-12066
13760,6713,11215,4954,30,-1603,-10196
13770,19609,14534,25126,2725,14123,-10641
13780,23527,15192,-3233,22882,6801,-10511
13790,20116,6244,-13024,15515,-2330,156
13800,16301,1735,-14255,4150,-5664,8352
13810,21116,650,-9441,-8885,-9315,21457
13820,24184,1224,-8259,-11472,-7578,25500
13830,27979,752,-8631,-12996,-5906,27112
13840,32748,3422,-7638,-13247,-5110,24030
13850,32748,7789,-8675,-10426,-5328,21841
13860,32748,11910,-10302,-7362,-4102,19234
13870,32748,15950,-10805,-5999,-1662,17520
13880,32748,27683,-12194,-6436,2355,15428
13890,32588,32748,-12222,-8108,1527,14456
13900,26568,32748,-8781,-10749,-2362,14361
13910,-81,32748,32764,-1846,-12935,16799
13920,8357,25294,5077,32765,14388,23398
13930,1237,22739,1654,27867,14406,16959
13940,-2275,20814,1283,5767,11091,13081
13950,847,16869,5780,-9930,-187,12839
13960,-4103,7356,8259,-6510,-6835,11529
13970,-7052,3842,6950,-867,-6495,9677
13980,-10663,1738,4483,1256,-3368,7422
13990,-12986,3965,1796,-1755,2532,3813
14000,-11971,5945,921,-2609,2277,1084
14010,-10565,7412,65,-2540,1018,-2462
14020,-8967,7542,3140,-2474,981,-10102
14030,-4881,7879,5260,-2231,4544,-12254
14040,-100,6853,5529,-1851,6978,-13455
14050,2231,5117,4628,-2629,7480,-14706
14060,4055,6326,597,-8256,7821,-16211
14070,7397,11310,-1378,-10663,6777,-18028
14080,12601,17610,-2851,-12104,5618,-21679
14090,18354,30977,-878,-13542,3015,-32079
14100,18473,32748,2866,-12822,2683,-32766
14110,25894,32748,8249,-10535,4126,-32628
14120,32748,32748,13175,-6458,8516,-24627
14130,32748,32748,11379,12563,18572,-14942
14140,32748,22033,514,29098,20464,-2957
14150,32748,11323,-9559,32175,14275,-3822
14160,25691,9654,-8419,20526,2038,-16898
14170,20847,16502,-6995,16166,-5181,-18980
14180,20033,22575,-11112,13666,-11892,-16965
14190,11690,8747,-3713,-3858,-13970,-1625
14200,9849,5602,-2943,-8251,-14802,735
14210,7096,-1651,-1721,-11854,-11716,4623
14220,5536,-6097,-756,-11914,-10513,6007
14230,5027,-10099,1312,-11121,-10292,7803
14240,3791,-15636,1251,-6981,-7885,12451
14250,3820,-16015,2349,-6834,-5805,14437
14260,4661,-15300,3461,-7840,-2030,15101
14270,6504,-14055,4704,-8967,1730,14802
14280,6045,-6465,9843,-9798,2295,9641
14290,3348,-105,9491,-5314,-784,5724
14300,792,6307,9142,1339,-4602,2488
14310,-510,21021,-2087,14591,-7928,-4366
14320,-1260,24681,-11694,18527,-6751,-8938
14330,-310,23275,-20814,19738,-5133,-12408
14340,-36,11791,-14938,15533,-3126,-13910
14350,-1201,5735,-8181,3022,-7089,-15384
14360,-1427,1318,-2143,-903,-7234,-13925
14370,30518,-8,32764,-2222,3067,-10026
14380,16226,12990,-18984,29813,3279,-12742
14390,23679,18207,-18744,18795,-14891,-3878
14400,32748,9667,-20488,942,-4986,18293
14410,24033,5162,-18055,-6970,-2424,12033
14420,12154,4844,-14147,-12195,-5786,6571
14430,24258,8035,-9513,-14789,-8857,14889
14440,28895,10859,-6786,-13912,-7995,17304
14450,32743,13197,-5243,-10823,-7002,18068
14460,32748,15034,-4709,-6506,-4234,18465
14470,32748,21232,-7397,830,2660,17225
14480,32748,24483,-8909,1260,3427,14988
14490,29171,27331,-7768,-234,2392,14593
14500,22718,32748,-3253,-2565,-3196,17895
14510,18129,32748,4149,-1271,-7553,19734
14520,5021,31976,31130,5146,-10377,21264
14530,6902,27046,32764,21574,-1177,24258
14540,-7526,25819,-4444,15079,19879,15158
14550,-8034,21019,-507,-2405,4146,12902
14560,-6717,17803,3230,-11749,-3622,12620
14570,-6339,8148,1147,-12637,-4037,8524
14580,-5541,4019,-727,-12190,-2559,6193
14590,-5327,1274,-1313,-12586,-2042,4121
14600,-7336,-1642,744,-12274,-3459,-829
14610,-9760,-2142,2587,-11252,-2776,-2431
14620,-11021,-1329,4440,-9831,-932,-2340
14630,-2089,3942,6545,-5956,5656,-3606
14640,1281,4204,6105,-4534,8149,-8685
14650,2192,3626,4818,-4129,10624,-13204
14660,5240,6268,277,-5429,14955,-15670
14670,6640,8311,-512,-6566,14846,-17493
14680,9662,12261,-675,-6927,14065,-20061
14690,19181,25735,-669,-5032,13815,-26849
14700,21700,32592,1588,-3764,10039,-29720
14710,26672,32748,11192,-1477,2294,-29563
14720,32748,32748,20135,4794,-129,-27119
14730,32748,32474,542,21705,19608,-18204
14740,32748,27594,-6382,27824,18693,-12613
14750,32748,23174,-12969,23475,9823,-13073
14760,24329,23256,-7780,7391,-3888,-16747
14770,21991,26949,-3306,5667,-7187,-16820
14780,21558,29387,-44,6313,-7864,-16276
14790,19842,27241,796,7979,-5692,-15867
14800,15428,18750,-262,3406,-5976,-10832
14810,12285,16512,-2344,-2880,-9426,-7698
14820,8911,15366,-3952,-9828,-12274,-4238
14830,3217,11147,-3414,-18927,-14373,1520
14840,1922,7343,-2810,-20575,-14320,3878
14850,3980,-3240,-887,-21089,-15473,8514
14860,4951,-7101,-286,-20982,-15888,11147
14870,4800,-9483,-1032,-19939,-16622,13602
14880,3749,-10130,-788,-18406,-17227,15694
14890,4326,-8092,-1176,-13257,-13506,17899
14900,5526,-6480,-1718,-10697,-10029,17289
14910,6698,-4523,-2156,-9351,-6627,15267
14920,5822,-588,750,-9415,-4393,9123
14930,5888,836,4466,-8181,-4477,6641
14940,6136,3149,6796,-4048,-2990,4043
14950,6017,6125,8543,2838,-1611,905
14960,6720,15426,15623,16325,7900,-6849
14970,-2679,17965,4688,21015,11248,-10972
14980,-4895,17057,-16695,22316,3042,-10566
14990,4364,9157,-15376,6094,-6046,-7536
15000,4626,3491,-3662,-857,1197,-8418
15010,32193,-4362,32764,-2155,11797,-6921
15020,24378,9050,-10994,8581,10554,-6931
15030,22760,10669,-18643,11720,1116,239
15040,31775,8936,-21165,7409,12586,10165
15050,32007,7199,-17673,1755,12753,12800
15060,23287,15939,-16627,-7216,-15041,17616
15070,29354,20129,-14993,-13194,-12035,19572
15080,31814,22784,-11461,-18577,-8757,19089
15090,32359,26470,-4075,-20771,-9840,14509
15100,29709,28287,-853,-17314,-10838,13268
15110,24810,29377,3024,-11787,-11430,13715
15120,14163,25561,19800,6633,-13007,19044
15130,19753,20735,18881,20895,-10787,22929
15140,19084,16018,25321,29374,-4736,21483
15150,14369,15923,3748,20666,6672,18165
15160,6696,12458,7029,-16971,-3664,15973
15170,4819,10486,10201,-15451,-5207,15814
15180,2055,9804,10373,-7563,-2152,15138
15190,-3164,8742,8440,-1150,1623,10895
15200,-4761,9277,5235,-2615,3612,7643
15210,-6531,7897,1301,-3922,4488,4118
15220,-9460,4992,-2014,-4755,3299,-2045
15230,-12709,3833,2243,-7305,-1650,-4653
15240,-15799,4963,9073,-7528,2484,-7066
15250,-10249,7700,11321,-6616,9992,-8689
15260,4458,6868,7517,-6463,13391,-11670
15270,6319,4836,3839,-8019,16079,-12396
15280,9583,6936,-650,-9095,20475,-14222
15290,11480,10856,-3433,-8337,20123,-16480
15300,13701,14805,-5282,-8705,17089,-19711
15310,15587,18472,-6331,-9979,12544,-23484
15320,20033,31038,-10369,-13717,4291,-31115
15330,23383,32748,-11631,-16491,638,-32682
15340,28559,32748,-6568,-17744,-183,-29484
15350,32748,32748,-11921,10908,15468,-8855
15360,32655,32748,-12905,21995,249,-14032
15370,27811,20251,5679,26234,-13289,-23890
15380,27619,15072,-5973,25837,-2973,-24821
15390,32748,15260,-14853,2029,-16818,-16196
15400,32748,16460,-10589,-9444,-24142,-11782
15410,32748,15738,-5784,-14310,-23316,-9309
15420,24410,8498,-1707,-10424,-16484,-8409
15430,18816,3511,531,-9143,-14984,-8089
15440,16176,398,3193,-10783,-14236,-6485
15450,13687,663,4134,-14670,-14120,-3836
15460,10258,-843,5666,-22096,-13241,2399
15470,9090,-3669,3419,-23779,-12642,5661
15480,5803,-5765,794,-25975,-12019,10741
15490,2936,-6314,-37,-25165,-10820,11423
15500,1214,-6750,-16,-23128,-9981,11178
15510,-147,-6823,-34,-20264,-8389,10731
15520,-2573,-3811,-863,-15745,-5546,7050
15530,-3287,-1062,-1795,-13592,-6084,4525
15540,-2575,2345,-3170,-11554,-8256,2383
15550,-1156,10141,-6491,-6949,-13779,-5776
15560,-2033,12617,-7901,-4449,-13832,-10385
15570,-3226,14434,-8315,-879,-13752,-14217
15580,-536,14127,-5418,4825,-9784,-14925
15590,6453,11523,-2209,4249,-2612,-11211
15600,19338,8269,9902,3332,4139,-7452
15610,32602,628,3542,5045,4818,-5545
15620,20336,2887,-7301,-2439,-6033,325
15630,21778,4360,-10973,-4382,-5746,11115
15640,32748,5930,-14266,-4792,-2798,22828
15650,32748,10427,-24939,-12719,-6638,20183
15660,32748,12715,-27634,-21495,-14594,10727
15670,26651,14320,-18619,-30302,-20126,9322
15680,23935,15881,-5742,-32715,-18653,10761
15690,23012,31435,25623,-13005,-7640,8582
15700,20876,30477,-13295,7718,-6755,6152
15710,23283,25778,-7581,-3742,-18864,5966
15720,25944,23878,-304,-4989,-18493,8752
15730,26104,20182,1490,-3846,-17341,11491
15740,24787,18678,2436,-3008,-16009,13425
15750,23704,15950,7642,-1835,-14165,16389
15760,22634,16092,8838,-823,-11128,17796
15770,19856,15949,10199,-798,-6192,18333
15780,10814,15192,14955,-2885,460,15208
15790,6704,13328,14804,-7004,4,11616
15800,3561,11314,11689,-11661,-2634,7950
15810,741,6074,8552,-13689,-4564,5369
15820,-342,3350,7754,-11910,1493,3298
15830,-1419,1105,5401,-10180,4799,2087
15840,-3286,-730,2592,-8847,6524,766
15850,-4569,-1287,-3058,-7263,3502,-933
15860,-4337,-499,-4023,-7529,-1125,-1757
15870,-4070,1200,-3680,-8114,-6507,-3033
15880,-1884,7225,-4601,-9461,-9653,-10093
15890,405,10919,-2671,-10147,-6252,-14369
15900,3749,13840,332,-9411,3115,-17658
15910,8460,17115,2473,-6519,15424,-21191
15920,17532,32561,-4861,4090,8682,-21858
15930,23466,32748,-4452,152,5434,-23706
15940,32748,32748,6203,1303,5460,-21961
15950,32748,32748,-5596,17281,9197,-14125
15960,32748,32635,-10043,28816,5518,-9099
15970,32748,21766,-9772,27101,-2680,-22057
15980,30949,21655,-12103,20321,-6435,-22307
15990,27547,23886,-12452,10615,-13126,-19463
16000,27098,23733,-8318,-4729,-20051,-14335
16010,25379,18214,-3951,-8204,-19891,-12609
16020,22381,11806,-1480,-9118,-18110,-10788
16030,17938,6945,-1167,-9541,-16321,-8861
16040,9964,1720,-3156,-13145,-16737,-4401
16050,7140,-143,-3486,-15989,-17837,-1216
16060,5650,-2353,-1568,-18982,-17921,2130
16070,6119,-7055,1998,-21157,-13987,6901
16080,6360,-8000,1706,-20556,-12487,8101
16090,5704,-8617,1308,-19362,-10933,8912
16100,4044,-7921,-418,-17732,-8496,9684
16110,2823,-8028,1143,-16012,-6501,8943
16120,1489,-7671,906,-13747,-5285,8001
16130,2815,-6554,2295,-9061,-4210,6115
16140,3555,-3386,2571,-6224,-5436,4923
16150,4060,410,2889,-3441,-7656,3729
16160,6648,11404,9639,2322,-11218,-344
16170,5582,19092,5586,4004,-6147,-4825
16180,443,23874,-2584,4690,-3689,-10127
16190,-1881,16380,-13346,4745,-8368,-10419
16200,-188,9736,-11818,3420,-7966,-9455
16210,511,4985,-8613,1956,-8132,-10221
16220,-841,885,-6284,605,-9076,-11234
16230,-1545,-4663,-5265,-2928,-8798,-7299
16240,2558,-4973,-6946,-6343,-9319,-2200
16250,8752,-5492,-8210,-10885,-12836,2425
16260,32748,327,-8714,-19776,-27128,6863
16270,32748,11600,-8368,-18344,-32436,7415
16280,32748,16276,-13842,-8200,-30914,9343
16290,32684,-2478,-9002,950,-20246,10346
16300,20386,-4429,-923,24,2749,15150
16310,20580,-1641,1103,-2691,10539,19347
16320,27161,3909,-974,-5014,11604,19939
16330,32748,16484,-8198,-8271,-7267,15012
16340,32748,25296,-15665,-10110,-9301,14779
16350,32748,32748,-19447,-14323,-8519,15592
16360,28847,32748,2329,-20950,-10397,12679
16370,4541,32748,32764,-8878,-8667,11324
16380,3610,32748,20907,20691,6598,17170
16390,3601,26700,14746,31279,12260,17326
16400,-1111,24835,4915,12113,12315,11300
16410,-896,20153,2809,-13425,2243,7729
16420,-608,11697,4476,-22289,-3981,6344
16430,-1640,7555,3408,-15961,-5584,2364
16440,-2996,3278,2341,-14727,-5413,87
16450,-2365,995,961,-15756,-4307,-769
16460,-3505,-1972,473,-16790,-3114,-1446
16470,-5013,-2945,-13,-15965,-3288,-1451
16480,-5655,-3666,-56,-15420,-3565,-1133
16490,-3928,-3538,3281,-14418,-1876,-876
16500,1610,-2554,5140,-13078,1802,-1399
16510,5375,-1399,6437,-10757,5126,-3806
16520,7739,-588,6167,-5000,8378,-7404
16530,8953,1509,4248,-2419,11607,-7516
16540,9845,5071,535,-424,15844,-7723
16550,10655,8965,-2261,311,18274,-9197
16560,16305,20628,-5610,-1069,17265,-16442
16570,17269,26511,-5994,-1943,15098,-22483
16580,14722,28352,-5263,-1552,11078,-28895
16590,7310,32748,6933,3629,5900,-32766
16600,10760,32748,4795,11559,14032,-31702
16610,23310,32748,-1554,19882,16331,-25148
16620,32748,32748,-6282,31423,1626,-12064
16630,32748,29481,-9127,25116,-6563,-13502
16640,31589,27165,-14488,16972,-11483,-14612
16650,27391,28861,-11070,1527,-19716,-12379
16660,25657,27239,-8117,-2804,-20409,-11429
16670,24239,23784,-6580,-4933,-20472,-10085
16680,21905,16721,-10187,-6339,-21292,-4601
16690,19248,12843,-9484,-9216,-21456,-3032
16700,13670,4254,-3400,-14992,-18849,-1206
16710,12486,-118,-656,-16248,-18436,-490
16720,11330,-4440,582,-17462,-18597,557
16730,8154,-11132,2884,-23004,-17704,3648
16740,6698,-11147,4204,-24615,-16003,5005
16750,4844,-10337,4513,-23154,-13859,5467
16760,2042,-9240,1960,-14132,-8717,4764
16770,647,-9600,1712,-10219,-5822,3609
16780,-385,-10912,3968,-7682,-2377,1963
16790,5369,12387,5405,18322,-2654,-6558
16800,3781,18496,34,20228,2161,-9515
16810,-2990,18621,-16965,15828,2262,-11100
16820,-1380,11609,-15973,11221,-3337,-8563
16830,903,4887,-9486,7434,-8392,-6316
16840,528,80,-4487,4442,-8385,-4130
16850,15569,-7432,13363,-4472,3463,5051
16860,16354,4385,-4868,-6662,-4196,7290
16870,32748,22880,-18869,-4397,-21083,7103
16880,32748,20013,801,-6360,-7968,12009
16890,25585,4096,-495,-5757,12254,1753
16900,7928,-5103,-1550,-3295,6673,-518
16910,2068,-9304,-794,-691,-1080,5825
16920,16372,-5690,-4527,1651,-3049,20783
16930,27649,-25,-7372,-669,-3560,22781
16940,32748,5734,-8351,-4167,-6378,22754
16950,32748,19095,-14913,-6653,-4965,18237
16960,32748,25307,-19151,-11522,314,15377
16970,32748,32268,-20587,-17291,2983,13980
16980,32748,32748,-20050,-23971,18,13309
16990,17114,32748,16909,-28645,-20967,17678
17000,11471,29493,32764,-8993,-24087,24028
17010,16333,20051,451,27400,-3988,21643
17020,13992,19642,6427,15960,1305,17518
17030,10701,19775,8361,1093,1255,15685
17040,2077,15473,14053,-9282,-7566,13150
17050,-3208,10401,16619,-4355,-7590,11422
17060,-7047,8727,12870,454,-4828,9342
17070,-7400,8824,6404,-396,-1924,6729
17080,-6249,6461,-2842,-8093,77,1494
17090,-5706,4728,-3520,-9313,-1949,-391
17100,-6000,3389,-3004,-9752,-4456,-2513
17110,-8907,3412,2433,-9790,-5880,-5445
17120,-11173,4394,8374,-7881,-993,-10548
17130,-3951,6080,12213,-4949,4937,-9742
17140,3513,4973,9946,-1854,8697,-9229
17150,5056,1333,3312,-1889,12229,-11457
17160,6134,1982,1572,-2612,14425,-11979
17170,7948,5527,-605,-2558,16527,-13439
17180,9926,10135,-2193,-2159,17185,-16407
17190,14523,19405,-3001,-149,16294,-23873
17200,13836,22206,-2504,975,15181,-27374
17210,12190,24275,-240,1868,12752,-29594
17220,19745,32484,9602,8010,9832,-29809
17230,29566,32748,5147,14407,11739,-29892
17240,32748,32748,-5177,18670,12870,-20366
17250,32748,30997,-11588,29208,4835,-9170
17260,32748,23633,-13262,26174,-6332,-5922
17270,32675,22444,-13615,17885,-9907,-10281
17280,22756,24560,-7623,9777,-9774,-14268
17290,16524,24684,-4178,1539,-12212,-12355
17300,17304,21124,-6620,-1178,-16150,-8983
17310,19108,17781,-8898,-3560,-17899,-4748
17320,15381,9705,-7886,-9135,-17643,537
17330,11578,6540,-4437,-11787,-16007,1693
17340,7642,4093,-2021,-13550,-14898,2852
17350,5306,1865,-204,-14344,-15281,4064
17360,6224,-2768,2833,-15123,-15290,6422
17370,5965,-4031,3046,-16073,-14192,7277
17380,5368,-4929,2702,-16202,-13916,7680
17390,4938,-6803,174,-13528,-12661,6953
17400,5041,-7629,-307,-12444,-11480,6284
17410,5342,-9206,1073,-12007,-9387,5557
17420,6865,-11447,5277,-11085,-5795,3133
17430,8680,-10939,8146,-3410,-668,828
17440,7334,-6803,9126,4468,-5,-2182
17450,5719,5792,3603,20595,-1052,-3550
17460,4879,10990,-2596,23854,75,-4925
17470,4054,14004,-10971,22942,2823,-6858
17480,779,11121,-11759,14979,2434,-8225
17490,252,7347,-7903,11899,-1850,-6484
17500,1447,5785,-2646,9136,-4687,-4395
17510,10375,8890,13388,7752,-3218,-2763
17520,26940,11883,785,12731,1303,-5019
17530,26925,7688,-6457,10215,3367,1019
17540,27883,4920,-9164,6139,1709,9591
17550,29983,247,-7345,1295,-1868,20470
17560,28390,-2511,-4657,-905,-1023,22048
17570,24953,-4758,-2595,-3384,1421,19410
17580,24842,-451,-642,-5066,2045,15743
17590,29941,4725,-2719,-3174,2003,18477
17600,32748,12248,-9036,-1325,3107,20154
17610,32748,21071,-16552,-2564,3981,19303
17620,32748,32748,-25391,-16069,2300,14970
17630,32748,32748,-22217,-25211,-2967,14196
17640,27579,32748,-8605,-31209,-15350,16315
17650,5753,32691,32764,-13937,-31471,20334
17660,3,11672,10447,25887,11894,12905
17670,-1888,13239,8981,8679,9507,12734
17680,-3631,11530,9342,-8372,-6872,9747
17690,-5473,11326,4825,-6512,-6263,8180
17700,-7848,10091,1351,-3974,-4048,5945
17710,-9662,8667,-2151,-2829,-1054,1489
17720,-10283,8122,-1350,-2682,-1508,-1295
17730,-11365,8932,1400,-3045,-379,-3953
17740,-12501,9789,4635,-3955,3397,-6227
17750,-4564,9790,6377,-5892,6386,-10101
17760,768,8284,3922,-8321,2683,-12951
17770,3960,6009,2257,-11649,1367,-14958
17780,9551,6770,511,-15171,5999,-16906
17790,13581,11379,837,-14933,7321,-18942
17800,18044,17281,223,-13718,7874,-22265
17810,21302,28082,-1964,-12689,8213,-26295
17820,21793,29983,-917,-12547,5841,-30268
17830,27065,30758,4784,-12077,4656,-29418
17840,32748,32748,20170,-7817,7502,-28400
17850,32748,31457,6614,21799,29715,-17744
17860,32748,22110,34,32168,25120,-7683
17870,32748,13610,-10808,32626,12730,-12499
17880,25387,14871,-11423,13365,-719,-21089
17890,24780,17902,-6185,4400,-5455,-17539
17900,22249,19442,-5077,1948,-7970,-15769
17910,18192,17878,-8111,2401,-9859,-11449
17920,15505,14378,-8432,1340,-10110,-8739
17930,13068,10234,-7883,-631,-10112,-6235
17940,6613,2830,-4545,-3467,-9945,-1791
17950,4804,378,-1916,-8755,-10467,451
17960,2288,-2692,34,-9962,-9993,2547
17970,742,-6733,996,-9758,-10374,5110
17980,325,-12148,2034,-9658,-11663,10800
17990,266,-11988,2345,-12031,-10061,12323
18000,688,-11308,2466,-13942,-8436,12324
18010,1563,-9283,3592,-10586,-2160,7997
18020,2680,-6927,4257,-7525,689,5758
18030,5267,-2647,6132,-5734,467,3873
18040,7151,2375,8423,-3723,-1910,1630
18050,7500,12521,7224,6993,-2530,-3979
18060,7069,17141,1756,13677,-1638,-6172
18070,6294,19480,-8541,18976,-911,-8189
18080,6456,12245,-15686,21995,638,-10968
18090,4655,4725,-8088,20260,-86,-10516
18100,6424,-2614,7892,18284,3438,-6776
18110,23020,908,-8750,23617,12447,1018
18120,23049,3168,-15044,18941,-8251,936
18130,23520,1910,-14232,12432,-2899,6846
18140,32748,3384,-10301,4098,4919,17169
18150,32748,5297,-8605,3300,3439,17742
18160,32389,3312,-6273,3427,1718,16302
18170,18958,2053,-5917,1632,4075,15182
18180,25467,4888,-4880,-1208,5027,18821
18190,31915,8505,-5490,-2652,4261,21689
18200,32748,14794,-11021,-3172,3151,23342
18210,32748,32525,-23135,-12555,3391,20501
18220,32748,32748,-22531,-21336,2450,17910
18230,32748,32748,-15624,-27772,-4350,17391
18240,23437,32748,-1343,-27011,-27086,25686
18250,20368,32444,9393,-19036,-32472,26375
18260,8192,25686,30697,-3693,-32444,21857
18270,9554,10964,23534,19262,12801,23111
18280,5702,8915,14694,32751,24153,18372
18290,-1229,11846,6589,26821,25316,14262
18300,-4218,10539,6596,9288,12398,11674
18310,-7145,10750,-1328,-664,1605,7210
18320,-12351,13351,-1231,-1067,2424,4401
18330,-15653,16904,-2790,1059,105,538
18340,-15248,16391,-3376,824,-798,-1608
18350,-14647,14492,-964,-1060,-334,-4726
18360,-9274,10368,3326,-3959,2528,-9001
18370,-5489,7811,2055,-8823,6277,-11061
18380,-2992,5486,936,-11690,3577,-13466
18390,-728,3538,1266,-15069,1141,-15350
18400,4563,2342,1627,-19112,2338,-18087
18410,8131,4721,1985,-19009,3882,-19912
18420,12248,9484,1897,-17358,5651,-22518
18430,21356,25476,-2379,-12388,9849,-28063
18440,25879,32748,-5310,-11813,9078,-31209
18450,31318,32748,-5650,-13153,6076,-32726
18460,32748,32748,27724,-11915,9457,-30363
18470,32748,32748,24238,10881,24808,-17257
18480,32748,27320,7662,31718,30062,-1294
18490,32748,9971,-4290,32766,15734,-1230
18500,22889,6664,-25755,31266,-1241,-25173
18510,20835,13147,-17295,16675,-13489,-22155
18520,23423,16536,-5598,1719,-16292,-15903
18530,18759,14853,-3967,93,-13637,-10988
18540,5253,-1166,-2965,-13271,-17019,884
18550,3520,-4662,-1956,-16663,-16145,3244
18560,1795,-9183,-1513,-19867,-14676,5388
18570,2120,-15532,3995,-25310,-11299,11323
18580,1850,-16509,6342,-25665,-7722,13070
18590,1071,-16531,6933,-24238,-4552,13521
18600,686,-17307,6299,-15173,-714,10737
18610,2801,-15061,5780,-10981,702,8380
18620,4149,-9406,6126,-8709,-665,5434
18630,6161,-3467,5475,-5250,-3672,3706
18640,8132,10577,5622,5971,-4678,-1794
18650,8048,18456,6642,10699,-3318,-5872
18660,5431,23678,3379,16507,-2480,-10205
18670,3697,16813,-17090,25232,1700,-12132
18680,4498,11019,-15365,22955,1602,-11325
18690,3665,5711,-9089,19198,1604,-10253
18700,31203,6748,26191,17239,9865,-4299
18710,31741,10288,-7700,26274,2717,-4219
18720,32748,6847,-9968,24441,-4542,769
18730,31901,74,-10644,15729,265,5648
18740,29048,224,-9541,2044,-338,9397
18750,25284,1188,-10129,-1797,-2358,13103
18760,19816,1204,-4751,-10039,-2771,18394
18770,25407,2957,-3107,-10724,1311,19643
18780,32748,6086,-6493,-7598,4480,22170
18790,32748,16232,-18206,-2626,334,22640
18800,32748,20469,-19850,-6828,-885,18965
18810,32748,27194,-17296,-12752,-690,16909
18820,32748,32375,-11255,-16375,-1371,15830
18830,21936,32748,-3112,-16895,-7502,18337
18840,18027,32393,2140,-13584,-13007,19861
18850,14739,31712,10326,-6412,-18296,18847
18860,-3842,18729,31978,27435,2391,20872
18870,1821,15722,19494,32765,20278,23760
18880,-2994,16491,6022,32699,27154,16669
18890,-12410,16210,-5403,24434,20256,9230
18900,-10147,10164,3285,-11469,-6529,8495
18910,-10648,9770,1676,-12325,-10977,7386
18920,-10888,9887,-1792,-8827,-11215,4691
18930,-10272,10013,8,-5271,-7726,-949
18940,-10862,9205,2276,-4696,-3646,-3146
18950,-10586,8932,4617,-4170,1175,-5086
18960,-8543,10456,6727,-3310,5285,-7161
18970,581,6370,3824,-3447,4835,-13060
18980,3261,4770,562,-6374,4315,-14898
18990,8675,9297,-1963,-13259,5146,-19059
19000,12943,16026,-2474,-14714,5818,-22838
19010,16626,23551,-3660,-15298,6858,-27341
19020,19368,32053,-3229,-16792,4799,-32763
19030,23510,31054,1419,-15724,1405,-32766
19040,32303,32747,12175,-11754,550,-32766
19050,32748,32748,27870,-743,10701,-32766
19060,32748,32748,1382,31917,32728,-12203
19070,32748,25096,-6406,32765,24718,478
19080,32748,12894,-11357,32766,4925,-8696
19090,13486,16843,-19303,27639,-1619,-23317
19100,12462,22890,-10282,10064,-10683,-16370
19110,12558,24816,-581,-4826,-15896,-10869
19120,10079,24249,-8074,-10468,-16440,-8443
19130,8926,12994,-10389,-17561,-17273,-1940
19140,10384,6864,-9064,-23777,-18314,2094
19150,9031,211,-7171,-29490,-18009,4311
19160,6828,-12198,-4794,-32766,-13764,7093
19170,6025,-17787,-4075,-32766,-12816,9506
19180,3373,-22541,-3555,-32766,-10771,12103
19190,1423,-24892,42,-25281,-9990,13304
19200,1051,-24559,-785,-16594,-6978,12227
19210,847,-24783,62,-9948,-3757,10901
19220,7353,-23690,10616,-4150,3714,11859
19230,7690,-15556,17100,777,4751,8119
19240,4003,-4365,15245,8974,-2192,2312
19250,8335,19246,10682,17924,-10693,-3066
19260,5252,28184,5385,22449,-9059,-8561
19270,3556,27864,-12147,30232,-5129,-12059
19280,3047,20846,-27393,31866,-4424,-13036
19290,32,8024,-12425,18164,-2790,-10296
19300,503,1373,-2770,13533,4704,-7122
19310,16390,-5414,27657,10564,15711,-2838
19320,21132,3869,-4878,8480,8340,787
19330,32748,7342,-7300,10370,-12769,2714
19340,32748,7351,-5669,11509,-20481,7443
19350,32738,6864,-14019,14865,-3758,9433
19360,21360,5411,-17278,12041,-537,10283
19370,14995,3768,-14604,5748,-1858,13131
19380,17905,4452,-10271,-942,509,17058
19390,32356,11325,-10829,-6447,4717,20456
19400,32748,17331,-14174,-5441,2052,20402
19410,32748,32748,-17086,-13719,-5490,17898
19420,21058,32748,2872,-11535,-17350,20576
19430,19288,31033,6736,-2062,-17853,22368
19440,14815,26815,12901,8710,-18050,19589
19450,2834,5456,32764,31954,14287,19768
19460,-8445,18708,-7642,31505,31386,13455
19470,-14181,15994,-14064,13169,14896,8929
19480,-12565,10887,-2320,-7777,-2017,8715
19490,-12573,12233,-3208,-8191,-5192,8248
19500,-11460,12871,-3400,-4800,-4009,-130
19510,-13585,10475,-497,-4573,-1151,-5295
19520,-16709,10076,6926,-4559,3386,-9111
19530,-7502,10465,9237,24,12874,-11240
19540,-790,7315,6544,-1684,6929,-14873
19550,1793,4686,3771,-6754,4454,-17668
19560,3988,3415,978,-10950,5877,-18717
19570,7922,6431,-1271,-13696,9613,-23262
19580,11474,12047,-2983,-12976,9826,-26767
19590,15652,19527,-5193,-12760,7999,-30748
19600,23924,32748,-6299,-16464,426,-32766
19610,29952,32748,-3337,-18545,-2479,-32766
19620,32748,32748,9630,-18529,-172,-32595
19630,32748,32748,14013,24007,31344,-13724
19640,32748,31719,-208,32764,29948,-336
19650,32748,14816,-13138,32765,16710,-6653
19660,16265,9251,-27065,28304,-2635,-23544
19670,19345,14177,-12063,9955,-9947,-14996
19680,18150,16126,-1035,-2122,-11054,-10518
19690,8393,13027,-3563,-6058,-12344,-5364
19700,6855,10345,-5788,-8502,-14088,-1500
19710,6214,6683,-7320,-12219,-14332,1898
19720,6027,2175,-6826,-16034,-13358,4441
19730,5183,-8860,-5699,-21484,-11379,7802
19740,4584,-15816,-3182,-23627,-8535,9118
19750,3806,-21549,321,-25259,-6030,10503
19760,-90,-26104,4762,-24573,-5814,11482
19770,-2094,-27955,6253,-19749,-6093,11635
19780,-3098,-29585,8173,-11804,-5616,11773
19790,-2739,-27816,8127,-4905,-3008,11453
19800,-1563,-9323,7441,-3302,-4634,7137
19810,773,-959,8657,-1641,-10376,6040
19820,3408,9922,9977,3575,-12843,3872
19830,4997,21767,6390,9400,-11041,-407
19840,4168,32748,-4948,14805,-2914,-10049
19850,2991,32735,-3054,15309,2395,-13023
19860,-1632,14910,-10348,14800,7976,-9805
19870,183,8118,-9646,12789,3831,-7399
19880,2799,1832,-3451,9994,2316,-6090
19890,32748,-1647,7658,5127,6777,-2703
19900,32748,7704,-17813,6854,-15692,-4604
19910,32748,12524,-19919,9242,-23274,-941
19920,25484,-938,-19545,12854,-13320,3652
19930,15609,-4747,-13701,4995,-2430,30
19940,13579,-4208,-11480,2039,-2207,4494
19950,17140,-2836,-10892,1587,-4853,10812
19960,32748,1872,-5195,991,-4394,18285
19970,32748,4757,-4010,3460,-1271,18938
19980,32748,8164,-6450,7653,1516,18618
19990,32748,17351,-14445,11117,5939,16463
20000,32748,24093,-17627,7647,10147,16179
20010,32748,31725,-15741,1768,14079,16525
20020,32748,32748,-12955,-2999,14097,16684
20030,22570,32748,-2615,-6608,2782,17600
20040,15888,32748,12079,-4266,-2281,16298
20050,-7331,28651,17911,29548,10419,22314
20060,-4600,23728,1518,31933,18335,22160
20070,-9302,19042,-2885,21369,14524,15009
20080,-12681,12434,3151,6907,3298,10997
20090,-12468,6491,8123,-1370,-11008,10823
20100,-13400,6683,4617,1653,-11385,10180
20110,-14174,7642,-216,4261,-8688,8218
20120,-12443,10582,-3638,-1842,-4320,811
20130,-13246,12961,735,-4989,-3675,-4745
20140,-13252,15655,6853,-5415,-1796,-9367
20150,-1006,14628,10511,-5750,1423,-11307
20160,6529,5621,2807,-11513,3451,-14818
20170,7862,4032,-660,-14970,3823,-14946
20180,10431,5398,-774,-16197,4713,-16320
20190,17183,17003,-4225,-12245,6288,-24051
20200,20804,22262,-4954,-12837,6249,-28090
20210,23688,27141,-6341,-14217,6720,-31457
20220,32565,32748,-3931,-16178,5979,-32737
20230,32748,32748,2019,-17492,3265,-31773
20240,32748,32748,29686,-10966,11334,-19903
20250,32748,32748,19571,17504,28827,-1910
20260,32748,6802,-2656,32766,6443,-8566
20270,16595,16923,-6546,-8590,-9568,-10095
20280,14793,16310,-4235,-18014,-11522,-6648
20290,9527,10653,-8121,-21272,-12650,-68
20300,9363,6354,-8988,-21339,-13614,2734
20310,8517,851,-7696,-21399,-13022,4224
20320,7066,-9489,-6843,-21154,-9722,5316
20330,4820,-15200,-5910,-20711,-2867,8134
20340,1395,-19232,-2455,-21116,-2628,9596
20350,-2179,-21558,734,-19443,-2986,11135
20360,-6695,-22292,3934,-7020,-3733,14586
20370,-8060,-24660,5475,-1697,-2751,18475
20380,-4147,-24107,7454,1387,923,24732
20390,97,-19340,7170,2980,6832,27625
20400,-2614,120,7006,1605,3214,13264
20410,1977,14366,13437,24,-3949,3938
20420,6993,29617,12772,-425,-6182,-3133
20430,12802,32748,-6171,9714,-4650,-14654
20440,7258,30536,-7819,15035,7335,-17381
20450,2945,17534,-11704,18645,7600,-15560
20460,2428,9676,-12582,18805,1828,-11836
20470,5808,-3684,686,13173,2177,-8230
20480,32748,-17674,30160,13188,-6288,-9016
20490,32748,-6737,-12412,7289,-29671,-25721
20500,32748,-33,-12566,3747,-20244,-30479
20510,32748,5201,-17086,5323,-11096,-17998
20520,30916,674,-17552,11606,-2016,10082
20530,19210,-1326,-14922,10275,-2711,13371
20540,18556,-677,-9377,5347,-1036,17143
20550,25889,2724,-5403,1208,4055,18736
20560,32748,11689,-8181,4625,4610,20490
20570,32748,17866,-12404,8069,2698,19561
20580,32748,25145,-17088,9264,5182,18116
20590,32748,32748,-21081,7360,15601,19912
20600,31921,32748,-23033,-2669,14108,19263
20610,21083,32748,-16411,-9435,1907,19107
20620,18048,32748,-5493,-13384,-13972,20609
20630,5115,25678,32764,-2966,-21831,14488
20640,-4880,11864,32764,20118,9927,14565
20650,-547,9360,20576,32683,32215,19500
20660,-7682,10638,-6480,23467,14852,11301
20670,-7140,8505,1756,1102,5093,11039
20680,-7515,8416,4574,-6699,-150,11766
20690,-10353,11568,335,-2347,-236,10359
20700,-15639,16220,-1006,3618,595,3818
20710,-15443,16893,-1208,3986,2704,103
20720,-15547,15338,2809,2928,9564,-6606
20730,-11906,15515,3163,2702,11213,-8409
20740,-9668,14363,1583,1103,10370,-11231
20750,-4623,8174,2870,-7367,4916,-16862
20760,-2000,6312,3401,-10824,4360,-18661
20770,297,5820,1423,-13461,4940,-20342
20780,8344,7961,-2160,-16328,5115,-24503
20790,15014,15026,-3796,-16376,4583,-27564
20800,20929,24372,-6026,-17022,3460,-31454
20810,27249,32748,-7719,-18792,471,-32762
20820,32748,32748,-6416,-23533,-10232,-32400
20830,32748,32748,7402,-22016,-7630,-20143
20840,32748,32748,8250,-2249,13067,8388
20850,32748,5217,14017,32671,6814,2461
20860,32748,-8008,-1332,32766,-58,-21639
20870,21190,-9264,-17503,32766,6162,-30767
20880,12351,-1983,-25135,30655,-427,-24366
20890,15174,12812,-2892,-3308,-14593,-9149
20900,10936,14797,559,-8532,-12842,-6096
20910,6962,13215,-1491,-8138,-12746,-3376
20920,5478,651,-5278,-10972,-13472,3439
20930,7947,-5989,-4081,-15359,-11987,6042
20940,7486,-11654,-3041,-19655,-9377,7344
20950,4336,-21293,536,-27443,-3289,10795
20960,-133,-25885,6882,-31186,1398,12296
20970,-3411,-27803,11395,-31956,5435,13161
20980,-7325,-24680,9759,-15972,2394,13677
20990,-6830,-20852,8904,-5563,-3109,14023
21000,-4721,-15637,7953,2459,-7265,13540
21010,822,477,5972,8981,-7629,10775
21020,4453,10303,4049,19011,-8535,3503
21030,10921,20841,-5012,22203,-11842,-1962
21040,11201,29223,-14133,21170,-10296,-10770
21050,4419,22605,-13736,22286,-3875,-20204
21060,3368,16494,-12015,23207,-2382,-17478
21070,3785,10697,-6698,20027,-1229,-12872
21080,12722,6085,16005,15823,1739,-7652
21090,29466,17244,-16173,28427,5424,-5514
21100,32748,21986,-24664,21803,-15532,-878
21110,32748,12094,-15296,9738,-18387,3630
21120,18658,-4534,-9011,-8052,4095,1385
21130,20326,-8284,-5923,-11602,-4080,7578
21140,32748,-2201,-5444,-8716,3676,18992
21150,32748,7543,-12821,1148,2029,19685
21160,32748,15458,-18806,2640,2609,19222
21170,32748,20919,-20760,-818,2568,17697
21180,32024,32747,-19555,-13578,-310,18700
21190,26943,32748,-9416,-19772,-8052,18323
21200,22207,32748,8013,-18567,-15203,17477
21210,4470,32232,24255,28959,21967,20948
21220,983,23812,16839,32766,27629,20617
21230,-5559,19733,11848,32766,25151,13633
21240,-12299,18647,-9131,29140,24365,6415
21250,-8058,10785,-1493,-13766,-2831,5206
21260,-6628,8856,3168,-16047,-7951,5234
21270,-6267,10019,-266,-9257,-8907,1994
21280,-9404,8174,1342,-4976,-7233,-8434
21290,-11519,7126,2808,-4142,-2772,-11791
21300,-14221,6113,4616,-2308,1424,-13200
21310,-10398,6381,6189,340,4238,-12328
21320,4566,7963,9174,2391,4822,-13093
21330,5627,7442,6030,-111,7146,-14660
21340,6878,7537,2955,-4030,8450,-15903
21350,10405,13207,-1771,-7732,9174,-20632
21360,14266,17659,-2027,-7400,9764,-23394
21370,18342,22899,-636,-6964,9138,-26696
21380,28742,32492,5227,-4076,2572,-32459
21390,32748,32748,7213,-893,-77,-32736
21400,32748,32748,11150,2565,1932,-30808
21410,32748,32748,7740,10425,14220,-22070
21420,32748,21480,-7438,32460,16017,384
21430,32748,9918,-8794,32694,1536,-9668
21440,32748,5112,-8643,30018,456,-17270
21450,17095,14489,-6110,13632,-4353,-14504
21460,13291,19340,-2003,4075,-7126,-10466
21470,8846,20935,-2693,-796,-7498,-8188
21480,5245,13800,-9607,-3385,-8320,-5896
21490,6740,7751,-7738,-13950,-9175,1931
21500,7886,1309,-5743,-19502,-9403,4285
21510,7272,-5288,-4310,-22465,-8878,5790
21520,4533,-15359,-2857,-24107,-5193,9323
21530,1471,-20023,-1964,-22780,-5852,10782
21540,-546,-21543,-763,-20138,-6609,12125
21550,-4415,-22724,2188,-15918,-5571,12302
21560,-4497,-23574,4023,-6756,-3351,11847
21570,-5399,-23092,4818,-2330,-670,13274
21580,4638,-16590,10820,1922,5163,17679
21590,3485,-4329,11401,5077,602,11819
21600,4790,7946,17052,6397,-10041,4844
21610,9385,19851,12688,5277,-12461,-420
21620,2351,32748,-11280,3421,-4216,-10188
21630,4119,32748,-17974,7644,-4270,-9616
21640,1645,27822,-18911,7974,-1777,-8500
21650,1895,10159,-5457,1530,5409,-7447
21660,6431,1702,8835,2207,6637,-7292
21670,32748,-11792,32764,12138,3067,-9698
21680,32748,8132,-27706,30058,-17193,-18997
21690,32748,8999,-26125,12397,-23552,-18490
21700,31603,1133,-21602,6428,-3668,-5675
21710,20574,-5122,-17845,4134,3310,1577
21720,25799,-5003,-12930,1388,-4866,8959
21730,28303,-4842,-13636,2485,-6320,14119
21740,31652,-2377,-11987,2102,-6480,16943
21750,32748,5428,-7388,3299,-1978,17179
21760,32748,8947,-7652,5764,2270,16400
21770,32748,13235,-11282,8043,6296,16281
21780,32748,18736,-14714,8250,9488,16314
21790,32748,32427,-14440,2346,11710,17002
21800,31763,32748,-11273,-449,10456,16937
21810,22356,32748,1746,-822,3898,13713
21820,-5163,32748,32764,7859,3477,9773
21830,-8481,32748,24449,28478,21956,14305
21840,-10123,25569,-3860,32311,28703,15609
21850,-14054,20300,-3481,20483,18382,9554
21860,-10851,12833,3544,1991,6385,7190
21870,-9541,7971,3108,-5512,-185,6000
21880,-7428,4429,-2144,-8562,-5957,1696
21890,-6437,3749,-1829,-8518,-6127,53
21900,-7474,3452,-1112,-6733,-5341,-1891
21910,-8162,3633,270,-4149,-3507,-4064
21920,-5418,5628,7072,1413,3362,-7093
21930,-392,7769,8104,3767,6508,-8403
21940,2270,7888,7724,2682,7610,-10551
21950,5649,6686,3573,-5639,6403,-12884
21960,6914,8632,1203,-8520,6076,-14354
21970,8708,12254,-625,-9989,6445,-16286
21980,15218,20856,1239,-9991,6888,-22147
21990,18570,25172,1475,-8948,7065,-25809
22000,21362,29018,780,-8155,6360,-29346
22010,32748,32745,-9535,29757,30543,285
22020,32748,21850,-13647,32766,18386,6662
22030,29885,8037,-9456,26424,-116,-13261
22040,19527,14467,-7803,16695,-3768,-17323
22050,15942,20708,-5243,8358,-8596,-14774
22060,14613,24979,-4720,2259,-11262,-10666
22070,11473,20114,-6368,-6851,-13621,-3491
22080,11655,14638,-7571,-11063,-13881,-429
22090,11612,9893,-8199,-15187,-14930,2240
22100,9264,-1106,-5378,-23207,-13577,5575
22110,7396,-6752,-4308,-25771,-11075,6886
22120,5544,-11068,-4141,-27399,-10149,8729
22130,3161,-16263,-1944,-29126,-10022,11235
22140,-1085,-20823,5330,-30443,-6341,15623
22150,-1247,-21347,6752,-26733,-5167,16762
22160,-2501,-21872,4532,-21263,-3912,17931
22170,1468,-22641,5673,-16157,-1243,25033
22180,7545,-18991,6184,-13397,-958,26062
22190,7594,-14458,4960,-9256,-3029,20942
22200,8612,2331,5491,3171,-7320,3485
22210,13071,11894,11421,11676,-6357,-3371
22220,8706,25792,4701,20361,-2342,-9521
22230,169,25298,-10848,32588,9636,-18106
22240,-3806,13823,-24699,21394,3560,-13018
22250,-2807,9448,-17434,8982,2172,-9962
22260,755,5385,-8930,-199,1069,-7962
22270,22800,6067,4119,7,-1164,-10625
22280,32748,11559,-7985,9383,-10997,-18715
22290,32748,12682,-8584,11925,-18194,-22959
22300,16211,-1373,-13457,11860,-1656,1474
22310,16946,-1912,-13629,6543,915,9633
22320,19233,666,-9851,233,-1701,12488
22330,28337,3608,-7435,-3880,-4802,15608
22340,32748,9288,-4558,-6144,-2043,18338
22350,32748,13165,-5955,-4251,1837,16866
22360,32748,16355,-8217,-1425,4487,16136
22370,32748,26874,-16896,686,6534,16817
22380,32748,32748,-20219,-4444,9459,17103
22390,27618,32748,-17699,-11267,3283,17304
22400,20589,32748,-4314,-16979,-9402,18415
22410,7051,30606,20438,10712,881,25892
22420,7029,23897,4345,27618,9493,26466
22430,2365,19687,8861,25736,4150,20651
22440,-967,17624,7991,-3409,390,12407
22450,7,13450,8884,-10841,-5330,11443
22460,-1559,8800,8585,-10856,-5820,9893
22470,-6203,4055,3712,-5904,-2701,6329
22480,-7223,4725,1797,-4515,-825,4527
22490,-9021,4863,1231,-4277,1786,1957
22500,-8658,5281,288,-4068,5153,-2932
22510,-6946,5514,2445,-4768,5365,-4802
22520,-1510,6661,5954,-5472,5708,-5800
22530,2055,6210,7336,-5205,5766,-7022
22540,3932,5364,5577,-4732,7299,-8857
22550,3451,5178,3449,-5111,9714,-9776
22560,3316,5969,1332,-5291,12046,-11229
22570,8406,11616,-3233,-4916,13269,-17415
22580,13282,16469,-4470,-5316,10616,-23201
22590,17253,22030,-5141,-6415,8012,-29417
22600,19575,27075,-5548,-7821,6089,-32603
22610,28658,32748,589,-9804,2530,-32673
22620,32748,32748,27999,-3732,6206,-29130
22630,32748,32748,12761,19582,20280,-20362
22640,32748,21069,-13621,32766,10791,-9984
22650,32748,12768,-17923,31796,4570,-15847
22660,24604,13441,-16817,19498,-3466,-18969
22670,23316,20304,-2040,-8818,-16780,-10893
22680,20022,19700,-836,-12560,-17489,-7537
22690,15959,17313,-3825,-11921,-17391,-5154
22700,9207,7117,-7745,-11260,-15785,-117
22710,8114,2567,-7579,-13429,-16033,2214
22720,7449,-2477,-5605,-16464,-15655,3629
22730,5024,-10099,-1881,-19039,-13658,7114
22740,3699,-11957,188,-22071,-13494,10004
22750,2262,-12562,1715,-22254,-13165,12303
22760,-604,-13566,3549,-21600,-11251,13550
22770,-2256,-13884,5011,-15987,-5772,14977
22780,-2463,-12435,2987,-11618,-3870,14596
22790,-2411,-10367,1651,-9057,-4190,12574
22800,-1017,-7416,2078,-8235,-6517,9359
22810,5391,3430,5756,-7780,-7843,1572
22820,8990,9893,9809,-4407,-5572,-3413
22830,11290,17916,13690,2537,-403,-8651
22840,2200,24676,-2440,18673,1600,-14439
22850,2582,20261,-12012,20013,-1562,-11312
22860,3242,11237,-16494,14555,-2031,-8399
22870,2446,3661,-14276,7527,-2273,-7253
22880,32748,4127,-10868,419,-10943,5992
22890,32748,18384,-19602,7254,-32157,-12607
22900,29571,5506,-19096,9459,-17924,-5688
22910,12158,-217,-12526,6857,416,3302
22920,4820,-4037,-4645,2535,8768,9217
22930,14650,-2764,-1796,-838,13605,19728
22940,26962,1912,-1893,-1229,5995,19654
22950,32748,8159,-4677,993,-2567,16913
22960,32748,21751,-19630,5375,-4231,14308
22970,32748,27301,-24571,4907,978,14271
22980,32748,31497,-23930,-1045,1351,14483
22990,31272,32748,-19404,-6955,-2905,14940
23000,21550,32748,-5918,-11102,-15861,15520
23010,18165,32748,5354,-8416,-17902,14443
23020,4321,26600,32764,3823,-10340,14117
23030,6147,15786,23858,29235,25266,19887
23040,-3219,23539,-600,32224,32225,14132
23050,-8849,19349,-4863,13829,20279,7418
23060,-3402,12281,1508,-12094,4237,6694
23070,-4474,3879,-388,-11709,335,6560
23080,-6045,5468,-5605,-6533,-918,4757
23090,-6216,7906,-8366,-5567,-3143,1813
23100,-8076,6493,-3436,-10732,-8342,-6106
23110,-12126,5583,3237,-11184,-9103,-9647
23120,-16816,5773,11056,-8580,-4583,-10882
23130,-6887,7713,5185,2330,16837,-7196
23140,-451,6117,-691,2630,15834,-9551
23150,1926,2865,-697,-1886,10050,-13131
23160,4849,5320,-1828,-9228,9357,-15813
23170,5880,9703,-4034,-10815,10251,-18122
23180,8959,15087,-4408,-12447,9938,-21213
23190,13219,23333,-4331,-13872,9574,-25019
23200,17796,32748,890,-14685,5159,-31481
23210,23442,32748,9606,-10933,578,-31338
23220,32072,32748,12789,-2067,-1265,-28415
23230,32748,32748,5003,21710,15820,-7466
23240,32748,32748,-6797,31986,26347,4728
23250,32748,23122,-7906,32766,13409,1620
23260,32748,15272,-1982,32403,-4493,-11464
23270,23123,14207,-8731,19301,-2046,-14588
23280,22653,14616,-13567,10683,-10311,-9321
23290,21167,16423,-13209,1402,-18646,-5775
23300,17214,11581,-5647,-9450,-20421,-780
23310,13896,8001,-4666,-8926,-16467,529
23320,9835,-87,-1343,-7711,-13177,1134
23330,3585,-4180,1278,-9458,-10633,2958
23340,854,-7486,2529,-12879,-10277,4526
23350,652,-9728,4408,-16816,-12078,6588
23360,-1576,-11979,5613,-20819,-10075,9668
23370,-2917,-14104,4201,-18980,-9749,9945
23380,-2392,-13527,2181,-16685,-9992,10209
23390,1076,-11107,4795,-19183,-10662,9187
23400,5956,-7787,6639,-19116,-9689,7072
23410,8503,-2674,8860,-15571,-9765,3079
23420,11367,13669,7497,-2144,-10169,-5409
23430,9019,20811,322,5245,-7123,-9673
23440,6669,24699,-9319,14566,-4255,-12743
23450,5846,16350,-20095,21023,-1547,-14544
23460,2272,11783,-16168,15027,259,-16900
23470,3772,8217,-7243,10317,-2970,-15932
23480,13607,6428,11448,7928,-100,-12403
23490,32748,-121,14844,22769,5430,-3313
23500,23143,-5284,-2744,20709,3463,6208
23510,24694,-6114,-9394,14930,2214,18400
23520,32748,-4125,-13393,8993,634,28042
23530,32748,-4248,-12381,-3227,-3934,19882
23540,29201,-4152,-13027,-8124,-2853,17289
23550,32748,2609,-11584,-14921,1611,21253
23560,32748,6139,-10255,-14558,3279,20641
23570,32748,9734,-12105,-12035,3639,19684
23580,32748,13828,-14573,-10422,3502,18303
23590,32748,26021,-15899,-14016,3763,15957
23600,32373,32365,-13193,-17361,1353,14609
23610,25979,32748,-6698,-19787,-4055,12878
23620,-5327,32748,32764,21,-13215,13879
23630,5744,31188,12073,29783,3294,22191
23640,3179,23134,745,32766,12598,20136
23650,-10962,17021,766,21382,22396,12061
23660,-9818,14771,4442,-4627,6674,10535
23670,-5767,12256,7038,-18779,-6797,9725
23680,-2553,9327,7567,-18375,-9220,8164
23690,-5473,5872,-3143,-6706,-4949,3192
23700,-7302,4978,-4570,-8195,-4153,2866
23710,-6919,6421,-4397,-10931,-4512,3433
23720,-2727,8516,-4593,-11920,-6778,2787
23730,-2522,7473,-3502,-10932,-12011,-5864
23740,-4859,6668,-602,-10837,-11538,-11334
23750,3402,11087,-5201,27,4195,-13115
23760,6940,12484,-4674,-7456,93,-18027
23770,13415,18273,1210,-12759,568,-21548
23780,19654,21756,5067,-11651,6706,-25318
23790,27393,24613,8543,-6764,6864,-27482
23800,32748,28498,10657,-443,4363,-30982
23810,32748,32748,7439,8724,11586,-30800
23820,32748,32748,10177,13457,24181,-19448
23830,32748,31569,37,27784,31968,-2519
23840,32748,14294,-7339,32766,6551,-9819
23850,26433,14501,-12670,32766,-509,-23232
23860,16306,20291,-14763,30818,-2805,-24807
23870,16757,27480,-12767,20093,-5737,-19061
23880,17233,26150,-2849,1592,-10116,-10826
23890,14897,19547,-6242,-1988,-11626,-8487
23900,13318,13514,-7814,-6391,-12562,-5385
23910,8827,2726,-3524,-16552,-14059,-226
23920,6055,-2067,-1244,-19367,-13704,1612
23930,4180,-6025,-681,-20631,-12526,3764
23940,1469,-10969,428,-22460,-11083,5925
23950,-1290,-17687,1762,-27162,-10572,10705
23960,-3438,-19771,3098,-26272,-9860,12446
23970,-4247,-20936,1747,-16828,-4515,14098
23980,-1504,-18767,3400,-14218,-5998,13961
23990,4285,-16442,4840,-10873,-6947,13229
24000,12597,-13216,5604,-5645,-3594,8916
24010,10689,5791,10967,6240,1489,-3559
24020,9537,19091,1290,12437,-5242,-6250
24030,6576,29363,-7879,17867,-11438,-9872
24040,4248,23270,-24643,26031,-4100,-15382
24050,2047,16638,-20895,21750,2661,-15646
24060,1893,10338,-9951,15515,3897,-14431
24070,32748,9500,15172,24118,25707,-9721
24080,30808,12999,-17856,31117,2233,-11696
24090,29351,5811,-8543,18407,-12411,-4782
24100,22223,-526,-6426,-2863,6593,9773
24110,24230,329,-7134,-5705,84,15991
24120,27614,617,-7534,-6950,-4881,22522
24130,31072,500,-7125,-8574,-5766,25812
24140,32748,1453,-4802,-12950,1153,24688
24150,32748,3442,-4548,-13114,2105,23914
24160,32748,6796,-6130,-11140,2382,21610
24170,32748,10657,-9705,-7996,4183,19093
24180,32299,20951,-16485,-5876,6697,14591
24190,30455,27121,-17767,-8466,6564,13436
24200,20439,32748,-12295,-14782,-3446,11205
24210,17334,32748,-1715,-14692,-10115,9241
24220,111,32748,32764,-7184,-15062,5970
24230,-4580,23772,7277,32518,21692,19134
24240,-6557,17918,4491,32712,21277,18508
24250,-13300,17848,-5452,23547,19916,14392
24260,-15329,14224,-96,-4199,6807,11049
24270,-8067,8046,5415,-23322,-14766,8216
24280,-6919,5796,3852,-18824,-15758,5467
24290,-7006,4505,2097,-13193,-14892,1466
24300,-9119,2629,-2656,-4543,-8695,-8252
24310,-9552,3290,-2422,-3577,-5753,-12147
24320,-10621,4335,1093,-3454,-4066,-15953
24330,-13516,5681,6613,-2200,-245,-17496
24340,5136,8020,6890,2362,8953,-13046
24350,7905,7909,2758,537,8157,-14129
24360,8071,8643,-1366,-4055,5733,-15336
24370,8192,14846,-4970,-12230,4759,-19093
24380,11757,22256,-5101,-14709,5371,-20892
24390,17388,30923,-4225,-16230,5943,-22517
24400,28713,32748,221,-14453,856,-24348
24410,32748,32748,6353,-10766,-2353,-21674
24420,32748,32748,26241,-2323,711,-12874
24430,32748,18233,6113,32419,23909,2170
24440,32748,8492,-1329,32766,15720,-1007
24450,32748,3011,-6276,32766,10140,-11870
24460,20070,14803,-9516,21268,-4850,-15467
24470,18450,20246,-8933,9951,-10908,-11159
24480,15775,23557,-5767,841,-13596,-8334
24490,10036,19315,-3493,-9172,-13433,-3086
24500,10220,12956,-6494,-11399,-14400,-142
24510,11627,6682,-8182,-13952,-16712,3179
24520,12517,757,-7495,-16655,-18419,6187
24530,9693,-8632,-3969,-19621,-14433,10218
24540,6239,-12875,-2230,-20444,-11362,10682
24550,2185,-18553,2254,-21178,-10210,10975
24560,-5212,-22880,10946,-14877,-6780,13047
24570,-5229,-22579,8860,-8382,-2663,14236
24580,-5351,-19433,6889,-2802,-1153,14330
24590,902,-5345,6259,-1324,-3786,12210
24600,3245,4322,10405,-6312,-3097,7661
24610,5137,32748,-986,21718,292,-19663
24620,4933,19595,-23386,32089,8607,-17521
24630,7073,11439,-18224,23811,2394,-13947
24640,7908,5633,-5829,13674,1225,-11718
24650,30725,-3621,32764,9198,4126,-7851
24660,23273,-2779,-7497,6362,-12957,2013
24670,17247,-2745,-9334,667,-13271,7443
24680,20799,-4825,-9290,-4519,-4797,13886
24690,32748,-8108,-9533,-8889,-1389,18738
24700,32748,-7249,-12201,-7041,-3263,14823
24710,32452,-6637,-15335,-4215,-3414,12651
24720,30679,-1859,-15103,-3813,693,16301
24730,32593,1783,-12442,-5010,1006,16234
24740,32748,5266,-11867,-3832,1793,15544
24750,32748,8642,-12176,-1633,3628,14923
24760,32490,17607,-12089,-259,4507,14641
24770,32484,24155,-10513,-1162,4807,14190
24780,30332,30332,-11800,-1486,3710,13023
24790,23621,32748,-5458,-182,-6180,11747
24800,19309,32748,-1688,3120,-8708,9929
24810,15608,32748,3171,8067,-12328,6545
24820,-23524,15242,32764,25387,-2854,2054
24830,-12388,10630,32764,32602,21612,15275
24840,-3086,17779,7824,32766,32509,22119
24850,-21493,24645,-10256,14539,15827,8292
24860,-15117,18439,-459,-8601,-4896,7519
24870,-10944,13624,1953,-14110,-12341,6905
24880,-12836,6333,-4870,-4278,-7112,-1242
24890,-12132,5017,-3474,-5342,-4120,-3206
24900,-10374,5346,-1316,-8606,-3205,-4902
24910,-6889,7346,-344,-10550,-2923,-10605
24920,-2401,9468,1223,-9401,-3281,-13909
24930,2691,10185,2306,-8192,-2231,-17029
24940,7563,11236,2386,-7555,-639,-19794
24950,16052,18701,2019,-8500,2316,-25031
24960,21473,23187,2880,-8371,3120,-27413
24970,26723,26452,4014,-7436,3154,-29990
24980,32748,32748,4891,-6663,5311,-32766
24990,32748,32748,5607,-7651,8408,-32406
25000,32748,32748,15649,-7950,10190,-23958
25010,32748,23156,12495,20726,21147,-2687
25020,32748,11546,-1642,32383,19754,-32
25030,29771,9319,-11701,30749,7834,-17785
25040,19309,12393,-12683,22392,-394,-22597
25050,15228,19640,-7514,5701,-5183,-14091
25060,13361,21191,-4014,435,-5504,-11106
25070,10343,18279,-4172,-2586,-6066,-9344
25080,9065,7996,-7842,-5110,-7247,-6458
25090,8699,2395,-6782,-11739,-10268,-464
25100,7657,-3102,-6040,-13135,-10051,1535
25110,4000,-8813,-5534,-13900,-8252,3100
25120,433,-21558,-5046,-17604,-4905,8147
25130,-1884,-23389,-1957,-20831,-5726,10599
25140,-4750,-22884,2039,-20555,-6582,11977
25150,-7722,-24831,5818,-8510,-1949,13177
25160,-6305,-21809,5346,-1032,563,14169
25170,-914,-17890,5687,2285,-97,14600
25180,3832,-10669,5879,2587,-2666,11010
25190,10513,12391,15966,-130,-6800,-328
25200,9639,24862,12944,1223,-5158,-7109
25210,3579,32366,-1067,12148,-3069,-13741
25220,6321,26027,-21104,30625,-2226,-17042
25230,7174,19479,-17587,27430,5948,-17296
25240,8119,14159,-6435,21902,12020,-16365
25250,32748,8346,20850,27338,16577,-6930
25260,30088,12014,-23554,28277,-10889,-3976
25270,21943,6971,-20419,15766,-13035,547
25280,10734,-3722,-10525,-1797,6056,6354
25290,11883,-5798,-7690,-6127,4785,8604
25300,19469,-6498,-7290,-6500,1270,12305
25310,32748,-6886,-11728,-3074,-1311,16884
25320,32748,-6315,-11864,2076,-1169,16412
25330,32748,-4284,-9376,1720,289,14793
25340,32748,-760,-6910,2932,2192,16221
25350,32748,8298,-11939,7965,5422,16356
25360,32748,12948,-16694,7098,7791,15797
25370,32748,18934,-19522,2548,10290,15779
25380,32498,32748,-13944,-10007,10527,16192
25390,28767,32748,-12754,-12767,4842,15818
25400,25532,32748,-5252,-14436,-3847,14819
25410,22153,32748,3559,-12224,-12811,11834
25420,-11765,29799,32212,24584,3191,12137
25430,-2704,25362,10685,32766,21796,19461
25440,-4956,21143,4229,32766,28358,16209
25450,-14870,12999,1,12014,14921,7417
25460,-11457,9677,2017,-5801,-332,6188
25470,-9983,7614,-991,-9937,-8053,-7460
25480,-14594,7648,7009,-4924,-3834,-14774
25490,-10054,9076,8590,-861,759,-15150
25500,-102,10862,6784,1602,5151,-15084
25510,8902,10045,2801,-3412,6641,-18809
25520,10848,11834,-785,-7875,5909,-19839
25530,12958,16128,-2339,-11522,5817,-21268
25540,21636,27887,-1227,-13373,7478,-24657
25550,27316,31973,725,-12638,5457,-26684
25560,32731,32748,3763,-11242,1177,-28459
25570,32748,32748,18975,-5416,1059,-18217
25580,32748,31980,12783,8209,18358,-5577
25590,32748,20447,5055,27953,29390,4664
25600,32748,10329,-1855,32759,21609,4199
25610,32748,1518,-7307,31339,5237,-17418
25620,23040,6106,-13628,24789,582,-20202
25630,18444,10901,-11494,14566,-5743,-16767
25640,14074,16652,-2744,-1339,-9246,-8213
25650,10237,15973,-2883,-3008,-8851,-5930
25660,7830,12931,-6128,-3545,-8361,-3870
25670,7728,7604,-6457,-5738,-8931,-1210
25680,4405,-4130,-4359,-13526,-9128,3204
25690,1750,-9450,-4573,-16975,-7728,5146
25700,-1141,-15905,-1232,-21994,-6342,10294
25710,-3177,-17164,2133,-21772,-3923,12739
25720,-6344,-18985,5221,-19213,-848,13833
25730,-6649,-18783,4864,-14968,2055,14793
25740,-4839,-15391,3079,-9037,1299,15409
25750,-1170,-13254,4285,-8470,395,15735
25760,2151,-8748,5224,-8004,1104,13282
25770,3536,9095,14418,202,-6186,-245
25780,6307,19385,12413,8748,-9617,-6024
25790,7016,27115,4667,18989,-9975,-12317
25800,6692,24571,-11248,28010,-6036,-17591
25810,6708,14829,-18152,25766,-5821,-20095
25820,8442,13923,-12000,18813,-3954,-17141
25830,11558,11383,2381,12091,-194,-12109
25840,27190,13353,-12582,12566,10828,-5697
25850,26517,11384,-20108,21369,-11255,-2158
25860,20572,4866,-16019,8360,-10918,3857
25870,16499,-511,-12114,-1628,-3489,7788
25880,24407,-4791,-10905,-12427,1076,11853
25890,32748,-5544,-10281,-12880,-3497,15328
25900,32748,-5561,-9295,-6743,-5750,15382
25910,32748,-4664,-9073,-5244,-953,15525
25920,32748,-2870,-8514,-4363,1214,15563
25930,32748,4409,-11430,1593,2899,16027
25940,32748,9202,-14431,3190,3700,16240
25950,32748,14862,-16675,1948,4219,16623
25960,32748,20587,-17237,-1527,3873,17150
25970,30791,30920,-13279,-10249,-1139,18743
25980,26904,32722,-4587,-13602,-7446,18233
25990,22051,32748,4970,-11537,-13220,17279
26000,3049,25397,28841,24364,5530,19325
26010,6193,23322,8274,32762,20405,22672
26020,969,23176,9932,32766,20868,19528
26030,-7466,25526,746,31277,21830,14495
26040,-10423,16014,6476,-2738,1629,9642
26050,-9318,13380,5850,-6848,-3270,7983
26060,-9140,11992,752,-5106,-3059,4631
26070,-8204,10456,-3189,-6009,-425,-4108
26080,-7749,9168,-1913,-7692,104,-8179
26090,-7891,7516,548,-8649,1378,-11085
26100,-9250,6112,3551,-8231,3262,-12902
26110,-2654,5490,6484,-3064,4673,-12539
26120,3297,6431,4496,-1146,2617,-12779
26130,8868,8899,136,-4603,2628,-15610
26140,11618,12200,-1427,-7488,4585,-17422
26150,15834,17218,-1892,-9442,5744,-20458
26160,20751,22909,-1935,-10247,5837,-24653
26170,29454,30364,351,-9880,2063,-30456
26180,32748,30734,5744,-9075,-949,-29972
26190,32748,32720,25504,-6016,-576,-25432
26200,32748,19748,8604,15570,24631,-6628
26210,32748,9342,1826,30432,23220,4110
26220,32748,3047,-6102,32766,16687,704
26230,27769,4841,-6873,26126,3661,-18731
26240,23483,9990,-12272,20048,-2879,-17565
26250,19791,14974,-11353,12791,-7771,-14817
26260,17265,20434,-8536,7309,-8725,-12444
26270,13740,19958,-5524,1089,-7091,-8073
26280,13135,14632,-7411,-1253,-6469,-6088
26290,12627,8853,-7765,-4978,-7743,-3768
26300,12183,3247,-6986,-9459,-9011,-1213
26310,5588,-6232,-4470,-15908,-8406,1880
26320,893,-11037,-1907,-17976,-6956,3265
26330,-2376,-15798,-1086,-19631,-5474,6190
26340,-9650,-17604,3937,-5098,2119,10811
26350,-6114,-14590,2694,-3800,925,9872
26360,-839,-8842,3867,-5947,-2924,9591
26370,5498,-1235,9733,-8120,-6851,8092
26380,12447,25047,9320,-2113,-5407,-2411
26390,8692,32748,-1233,5760,-5862,-10910
26400,8407,32748,-2859,16329,-6343,-17304
26410,10403,22972,-21832,31430,3018,-18091
26420,11822,14895,-11276,26007,3474,-16945
26430,29508,4813,32764,22308,7812,-14645
26440,32748,-616,31008,27564,17741,-10510
26450,11114,-7409,-13939,10614,-2659,-2420
26460,4603,-11236,-10542,324,282,2609
26470,12344,-12644,-8532,-5152,164,7936
26480,32748,-8935,-11760,-6165,479,12887
26490,32748,-6666,-12892,-2526,-1401,16559
26500,32748,-5506,-15216,838,-3165,19042
26510,32748,1661,-12083,-1322,-3020,17733
26520,32748,5006,-9292,-3305,-1363,17793
26530,32748,8117,-8005,-4157,344,17451
26540,32748,11588,-8970,-3560,2797,16668
26550,32748,19514,-11199,-4464,6999,17277
26560,32748,25333,-10330,-5735,6804,18159
26570,26848,32742,-8830,-7427,-2912,17763
26580,21683,32606,-3332,-8248,-10441,17615
26590,19048,31936,5119,-6042,-18063,16455
26600,-2747,22825,24802,24105,7275,14189
26610,-4305,18926,13271,32719,22322,16875
26620,-6376,19146,7085,32723,20544,15632
26630,-10136,21450,-4522,25244,13462,12716
26640,-5957,12106,8308,-9832,-3456,10227
26650,-5624,8978,5395,-8563,-5136,8552
26660,-5915,7989,234,-5090,-5045,6272
26670,-7047,8287,-1450,-6226,-2652,-107
26680,-6083,7860,-1499,-6756,-2183,-2404
26690,-6304,7159,-505,-6530,-3076,-5545
26700,-8137,7200,2658,-5642,-2579,-8779
26710,-2058,8336,7277,-1235,5216,-11648
26720,2214,7629,4001,481,7729,-13232
26730,5820,7910,409,-521,6894,-15105
26740,14084,16039,-2695,-5247,7599,-19995
26750,18300,20908,-1382,-5949,8021,-23982
26760,20323,24271,-335,-5551,7080,-28003
26770,32173,26695,6312,-5651,2018,-31172
26780,32748,27690,7074,-6334,2904,-32444
26790,32748,30645,8055,-7059,5104,-32122
26800,32748,29599,10992,340,13225,-14143
26810,32748,17970,479,19087,18344,2908
26820,32748,9840,-6626,31707,13469,10741
26830,32748,-209,-6480,29753,2435,-13055
26840,21981,6209,-11620,25073,-1507,-19065
26850,19598,11722,-9930,16435,-5965,-16694
26860,19136,15421,-6993,8297,-8540,-12126
26870,13664,15428,-6974,-1000,-9026,-6615
26880,11533,11597,-7770,-4544,-8816,-4102
26890,9725,6758,-6380,-7715,-9511,-1907
26900,5807,-2657,-3282,-12851,-9624,1825
26910,2848,-6443,-2470,-15219,-8162,3758
26920,111,-10411,-1792,-17407,-6738,6127
26930,-2617,-14239,-1268,-19864,-6572,8733
26940,-6587,-17315,1987,-22501,-7625,13587
26950,-7915,-17892,4174,-20464,-4581,14105
26960,-8957,-17998,4594,-15521,-753,12993
26970,-8257,-16004,4238,-10828,1035,11998
26980,2632,-6615,7740,-9224,-1959,7972
26990,5859,1748,12200,-8942,-4562,1854
27000,10464,21028,4562,314,-6884,-7686
27010,9392,27761,-645,10415,-5397,-12576
27020,10085,25982,-2812,20899,-3948,-15501
27030,10781,13695,-14490,31193,2037,-15969
27040,13114,8329,-8428,27865,3084,-15134
27050,32748,6423,32764,26087,8146,-13075
27060,32748,8326,9088,31404,19372,-12419
27070,10508,-5000,-13424,13207,-5037,-3963
27080,8628,-8121,-9214,302,4713,2128
27090,14465,-8848,-6676,-6173,4135,6298
27100,31917,-7835,-7915,-8516,-1316,14254
27110,32748,-6182,-12272,-6128,-3081,18441
27120,31048,-5028,-14752,-6084,-2600,19882
27130,32748,291,-11702,-8942,-2047,19988
27140,32748,3512,-12207,-8405,-1157,19300
27150,32748,7538,-13314,-7471,957,17989
27160,32748,11334,-13989,-7227,2636,16860
27170,31479,19796,-10244,-8207,2333,17067
27180,31404,25002,-7541,-7160,-330,18072
27190,29640,29218,-7649,-5146,-4042,18227
27200,20487,30932,4611,-2975,-11422,17007
27210,1612,19870,10157,32712,14427,19380
27220,-3877,22717,1910,26371,12988,15932
27230,-5447,15757,10723,-6961,-2307,12608
27240,-5606,12824,10698,-7362,-5519,10184
27250,-7016,10804,3395,-2780,-4088,6141
27260,-7994,9232,-1209,-2287,-2849,2717
27270,-5104,8446,-1742,-6724,-1884,-1347
27280,-5327,7929,-1022,-7724,-577,-4015
27290,-7155,6956,459,-8346,1581,-6969
27300,-8889,6463,4099,-7413,4290,-10849
27310,-2953,6591,4332,-5560,3391,-11781
27320,3066,6216,2867,-4318,1514,-13403
27330,10601,11340,262,-6072,2818,-17934
27340,14580,15287,615,-7060,5249,-20689
27350,18734,18524,883,-6686,6804,-24044
27360,22374,21412,1038,-5399,7214,-27156
27370,31970,24628,1977,-2887,4414,-31244
27380,32748,25233,7624,-2292,2348,-32516
27390,32748,27237,16162,134,4520,-30764
27400,32748,22314,3741,18109,21707,-11338
27410,32748,15093,-864,30556,18962,-2054
27420,32748,8235,-8051,32762,10971,-5338
27430,27973,11200,-13012,21861,-5552,-17899
27440,26251,15708,-13621,13409,-9608,-16949
27450,27091,18084,-9095,5331,-10974,-13761
27460,20530,19097,-9748,-1272,-10627,-8548
27470,17858,15470,-9457,-3809,-8762,-6434
27480,15172,10614,-9147,-5312,-8369,-4912
27490,9025,533,-5541,-10638,-8171,-1166
27500,4415,-4314,-3062,-14213,-7703,792
27510,1233,-9097,-1612,-17095,-7264,3188
27520,-1465,-14822,684,-20117,-6823,5959
27530,-4878,-18559,3776,-23668,-9418,12432
27540,-5645,-18015,4129,-21726,-9155,15231
27550,-6205,-16326,3716,-17418,-7011,15524
27560,-6710,-12675,3483,-10412,-3808,12593
27570,-1941,-8443,5477,-9099,-2794,11123
27580,2905,-3011,7705,-8575,-2312,8762
27590,10335,10307,13416,-1254,-5958,1335
27600,12110,17454,8445,5117,-4171,-4157
27610,11323,24202,3364,8442,-1076,-9237
27620,10144,27433,145,13491,-850,-12358
27630,8866,16025,-17671,24452,-1038,-12062
27640,7317,9116,-16685,20172,-1229,-12358
27650,11388,-4268,21264,12147,2528,-9898
27660,32748,-7365,31365,17537,19319,-5082
27670,27017,-533,-21735,25186,2334,-5235
27680,23538,-4904,-12868,7003,-8341,2947
27690,26263,-6824,-10651,1073,2965,5026
27700,31400,-6338,-8332,-2612,3847,5930
27710,32748,-5503,-7839,-2276,330,9523
27720,28006,-4657,-9857,536,-4077,16044
27730,29111,-4036,-5710,-1340,-1205,17472
27740,32748,-618,-4416,-642,2094,18184
27750,32748,6631,-12578,2682,3631,17651
27760,32748,10620,-17546,3933,6444,17248
27770,32748,15101,-19860,-310,8213,16983
27780,32748,20800,-18291,-5647,8285,17554
27790,30633,30601,-17045,-10641,-694,17966
27800,21160,31720,-6213,-16317,-17057,19217
27810,20012,32279,1587,-13262,-25174,18407
27820,10826,28464,31035,-4602,-28471,13567
27830,-886,18887,32764,17277,-3147,11530
27840,-1041,14913,16867,32766,28808,16457
27850,-7313,18821,-1837,31387,21961,12213
27860,-6945,10462,5309,-7449,874,7262
27870,-5857,8018,4397,-9439,-1662,6447
27880,-5362,9179,-1248,-3190,-1196,3807
27890,-7574,10568,-953,-1015,54,-3358
27900,-8521,10689,2,-581,1265,-6661
27910,-9284,10340,673,399,2023,-9869
27920,-11445,10016,2211,2095,3615,-14916
27930,-9768,10061,1206,2391,4966,-15160
27940,-2392,9926,104,928,4397,-14728
27950,2107,9123,-278,-2483,2476,-16358
27960,8837,13425,-2222,-9076,1297,-21113
27970,14030,18159,-1251,-10897,1111,-23792
27980,18938,23206,228,-11178,1042,-26943
27990,32508,29768,6262,-8408,-390,-30928
28000,32748,31191,9269,-6707,641,-31852
28010,32748,32748,11832,-5799,4504,-28729
28020,32748,32748,11826,-4445,9931,-18236
28030,32748,13662,548,23851,20045,9958
28040,32748,1327,-2086,32531,12200,7335
28050,32748,-3916,-3828,32699,7066,-8004
28060,20665,5424,-10720,25007,-830,-18402
28070,17576,8069,-12364,16385,-6825,-13593
28080,12897,14460,-7760,-2886,-7795,-3669
28090,8010,3953,-7242,-8844,-9037,1315
28100,5521,-1348,-3851,-12482,-8824,2920
28110,2055,-7615,-1384,-14519,-6942,3844
28120,-3672,-18294,-2547,-19963,-4003,7995
28130,-7697,-20969,1440,-23974,-4665,10112
28140,-10079,-23424,7711,-23602,-2667,10438
28150,-15271,-23779,5879,-16948,2100,8103
28160,-7303,-14729,7011,-14568,-1152,10697
28170,-1503,-9464,7470,-14682,-3798,10819
28180,3471,-731,8131,-12842,-7372,9240
28190,10782,18079,11272,-7389,-10344,282
28200,11946,28361,2431,-113,-6819,-6770
28210,11029,32748,4144,8259,-1744,-13135
28220,10867,32076,6300,18691,2774,-17187
28230,12631,15570,-19150,31074,49,-14220
28240,12885,7988,-12953,23755,1445,-14026
28250,22202,-1731,22339,17904,3994,-13107
28260,32718,-759,-26412,19013,-4041,-7987
28270,18539,-3568,-17361,6181,-11689,-2838
28280,10487,-7090,-10861,-3016,-2056,1594
28290,22695,-8463,-7779,-8519,1435,5336
28300,32628,-6868,-10147,-5456,-4,9053
28310,32715,-3673,-16756,-668,-2894,13400
28320,32689,-3030,-12194,-2481,-7650,16731
28330,32748,-607,-9164,-4428,-6069,17406
28340,32748,1780,-8175,-4269,-3411,17658
28350,32748,6501,-5586,-964,2601,16597
28360,32748,10190,-8072,1941,5096,15762
28370,32451,14696,-9586,2849,6463,15194
28380,32748,26252,-9054,1793,7432,16572
28390,29788,30259,-9150,1206,4659,17111
28400,23237,31847,-9663,-298,-604,17471
28410,18078,30808,-4166,-2067,-8661,17839
28420,-1874,23519,31651,5609,-15708,13540
28430,-4845,19347,30030,22244,-420,16002
28440,-574,19484,10758,31300,16138,19292
28450,-6448,16151,3504,313,413,10883
28460,-5085,11970,9780,-10559,-5383,9693
28470,-4014,8848,11178,-9166,-4990,8096
28480,-5403,6895,1563,2326,2805,2776
28490,-4925,7144,-661,3551,4836,682
28500,-4458,8623,-1604,3038,5948,-1922
28510,-7108,9037,2112,412,6106,-6775
28520,-6954,9303,7067,-78,6277,-7915
28530,-3195,8879,8739,343,6957,-9048
28540,1975,6626,2203,-1886,6993,-12643
28550,4213,7169,-1262,-3742,7738,-14428
28560,6932,9361,-3539,-4806,8687,-17123
28570,11219,13250,-3969,-4691,8228,-21073
28580,20785,24283,-6002,-4034,5721,-29359
28590,25261,28515,-6304,-5550,2617,-32148
28600,29800,29463,-2939,-8063,-824,-32766
28610,32748,32748,30185,-7976,-2833,-26083
28620,32748,30651,20455,3188,12727,-18222
28630,32748,17739,6632,23352,24314,-5936
28640,32748,7640,-6688,32656,18393,1866
28650,31926,6,-6623,27972,5036,-15939
28660,23781,6217,-8397,16442,-1586,-17092
28670,21697,10549,-10215,7445,-8619,-13957
28680,22192,19476,-1296,-5043,-10551,-7847
28690,21981,17986,322,-4815,-9153,-6526
28700,19115,12942,-4165,-2924,-6304,-5219
28710,16592,7380,-6589,-3619,-5389,-2938
28720,13772,-726,-4593,-10158,-6490,2118
28730,11436,-4032,-2939,-11725,-5489,3491
28740,788,-10089,31,-12156,-843,5134
28750,-4563,-13338,2182,-13021,863,7215
28760,-7827,-15421,4141,-14413,494,9789
28770,-9980,-15494,5160,-14381,-1000,10980
28780,-9989,-14377,4566,-8559,89,9514
28790,-7558,-12526,3042,-5465,1910,9698
28800,-2410,-7669,1623,-4487,1488,10090
28810,6012,6435,11397,-11407,548,6185
28820,8089,18562,12196,-10797,319,1047
28830,7456,30692,7340,-7455,-3204,-6049
