timestamp, ax, ay, az, gx, gy, gz
0,-14076,-9570,-1329,-3805,17004,-1163
10,-15414,-10227,-146,-5134,16573,-1679
20,-15701,-10939,1569,-5784,14986,-2532
30,-14254,-11978,2990,-4842,14115,-3348
40,-12334,-12523,4949,-4396,14377,-3450
50,-8747,-11743,5642,-3176,15592,-4008
60,-7708,-10902,3859,-1821,18881,-5522
70,-11362,-11058,1018,-2398,21355,-7256
80,-13144,-10530,1035,-2676,19962,-7055
90,-13937,-9862,-1589,-2388,19786,-6908
100,-15962,-9959,-2238,-3029,20299,-7030
110,-16817,-10939,3027,-6000,7691,-2285
120,-14950,-9802,3485,-5553,4938,-2764
130,-14561,-9198,2570,-5206,3990,-2831
140,-14215,-8897,1952,-5176,3866,-2536
150,-13336,-8567,897,-5284,4315,-1996
160,-12375,-8561,903,-5406,4016,-1939
170,-11370,-8797,1578,-5556,3372,-1849
180,-9650,-8978,2595,-6118,3883,-1212
190,-9122,-8721,3101,-6349,3858,-1144
200,-8729,-8580,4668,-6400,3667,-1210
210,-9849,-8125,6487,-4500,3347,-1652
220,-10603,-8554,6138,-2790,3707,-1622
230,-10108,-9947,3961,-1007,4014,-853
240,-8952,-9886,4014,1223,3173,-253
250,-7565,-9713,5214,2134,1382,145
260,-6810,-9887,6335,3090,-1224,102
270,-6681,-8993,10351,4986,-5580,-578
280,-6948,-7607,11816,6811,-6578,-470
290,-7304,-6215,10560,9125,-7876,-597
300,-11259,-8759,7190,13243,-9696,-838
310,-12570,-11273,4695,14632,-10257,-444
320,-14954,-13882,1081,15645,-11001,-281
330,-17685,-16100,-2076,16981,-12864,-389
340,-20939,-19073,3702,17548,-13419,-914
350,-21680,-20587,5903,17807,-10232,24
360,-22699,-23593,6568,19466,-7965,735
370,-22740,-29348,5387,21596,-7959,637
380,-21834,-29027,3897,21154,-11048,-891
390,-22536,-29229,4472,19694,-16352,-3306
400,-26531,-28299,6198,18129,-20402,-2767
410,-26274,-26764,9492,12426,-17598,-798
420,-25916,-26042,8833,11437,-13736,503
430,-28581,-25443,7734,11290,-13168,1467
440,-20737,-21353,7992,8556,-15080,5426
450,-17838,-19052,3397,6712,-17644,5549
460,-15647,-15159,3860,-947,-23599,6827
470,-11989,-13341,4299,-2044,-25874,6675
480,-7774,-12099,3610,-2519,-27337,5722
490,-3438,-10784,5182,-2951,-28047,4916
500,2106,-5954,1657,-158,-18784,4205
510,3389,-2523,-1363,-322,-13678,4355
520,3059,-841,-1888,-2239,-10852,3297
530,8227,2885,-2737,-3860,-2460,1818
540,10691,3216,-3363,-3728,1635,264
550,12631,4300,-3268,-3572,4587,-1656
560,9222,6990,-4588,-2900,7202,-3149
570,3599,7217,-3970,-3149,11472,-3436
580,-1486,6364,-3002,-4150,12920,-2023
590,-4542,3782,-1384,-5452,13744,-906
600,-4664,-869,1918,-6523,14949,-261
610,-3332,-5815,9767,-5949,17016,-32
620,-4537,-6457,14511,-4515,15882,-251
630,-9367,-6574,18078,-1862,13114,-265
640,-16147,-3497,21579,11260,229,4102
650,-6666,-3748,21158,18365,-5623,7444
660,5273,-12378,359,21855,-3561,7373
670,4113,-25734,-19735,15571,11321,-536
680,-7572,-32764,274,2093,11019,-1522
690,-24779,-32217,-15708,1343,27043,-6878
700,-31205,-22897,-14492,1791,22417,-10507
710,-29766,-15196,-11161,-5389,17699,-11129
720,-25319,-13209,-7501,-7436,11187,-8640
730,-21782,-18343,-766,-10387,13213,-7324
740,-25692,-23400,9012,-15239,25093,-9593
750,-32225,-25991,16390,-18365,32574,-10528
760,-32764,-23331,5809,-14256,21341,-8500
770,-32764,-20478,4039,-15997,20800,-8087
780,-32764,-17970,2519,-16357,20778,-6592
790,-32442,-16855,-679,-16196,15766,-5659
800,-25007,-13233,5040,-21760,521,-4953
810,-18718,-13128,10847,-23297,-5736,-3880
820,-12166,-12925,15479,-22079,-8540,-2769
830,1277,-9925,11973,-15657,-7547,-702
840,6308,-10047,11058,-14461,-5643,-1507
850,4427,-9227,7048,-11268,-4331,-3460
860,-285,-2107,-105,-5961,-2886,-4777
870,-2290,2756,-755,-5006,-1382,-4758
880,-2880,4934,3599,-5610,1624,-3883
890,-5228,3219,8474,-5318,6043,-2535
900,586,-3798,3582,10118,-140,2941
910,204,-3356,1674,11838,-880,2117
920,-126,-1708,-1704,12376,-7239,1402
930,314,-1481,-1684,11567,-12444,1043
940,873,-3212,556,10112,-18204,319
950,-150,-5981,3844,8717,-22868,-663
960,-9238,-13930,8772,12563,-28579,-2857
970,-20032,-23512,12910,17694,-24602,-4381
980,-26246,-32718,16083,22979,-12022,-2829
990,-26532,-32764,9777,31161,1130,3255
1000,-30296,-32764,6115,32223,78,1882
1010,-32487,-32764,2195,31708,112,519
1020,-32764,-29464,-4162,26020,-7738,1503
1030,-30156,-24630,5552,18306,-12640,3122
1040,-32348,-21450,5579,13145,-13146,3849
1050,-32017,-20757,7498,7353,-14344,5870
1060,-26715,-23508,7214,-223,-18031,6216
1070,-22122,-23417,10487,-3324,-23400,5698
1080,-17295,-21379,11781,-3738,-27813,4746
1090,-17441,-21012,8288,-3237,-27653,3581
1100,-14569,-18145,2426,-5824,-25295,5438
1110,-11215,-14629,-1728,-6154,-24252,7119
1120,5471,-5842,-333,-6242,-20152,8783
1130,12211,-1649,-829,-3996,-16132,5926
1140,15876,1732,-874,-2651,-11233,2492
1150,22424,6557,-3064,-1473,2928,-380
1160,18771,8315,-6183,-1207,9211,-2495
1170,12977,9063,-7481,-1712,13060,-4439
1180,7053,9204,-7633,-2731,15817,-5095
1190,-2152,3895,-5019,-5171,17133,-4520
1200,-4225,-640,-1805,-6178,16538,-4146
1210,-5630,-3641,1579,-6624,15489,-3962
1220,-6926,-6778,12181,-6311,11338,-3141
1230,-10531,-8416,18533,-5119,7851,-2764
1240,-16050,-10220,26197,-2826,4344,-2054
1250,-20205,-8388,29005,2685,1273,51
1260,-10685,-347,22358,20510,-9341,6533
1270,-2767,-1797,7649,24224,-7755,6906
1280,1579,-10569,-19710,23039,3015,6272
1290,752,-28862,-25787,6500,4308,2508
1300,-8076,-32764,-2671,-8221,4318,1137
1310,-15535,-32764,-1,-8792,11863,-351
1320,-28760,-25279,-10499,-827,22143,-7481
1330,-26064,-18669,-10835,-5238,21761,-6089
1340,-18384,-16310,-8377,-6364,10792,-2156
1350,-19239,-20955,-3496,-13097,13030,-6614
1360,-23282,-26103,358,-18753,24382,-10036
1370,-28253,-28902,11654,-22623,31789,-11668
1380,-31463,-25818,12563,-15861,15757,-11129
1390,-30840,-22181,4113,-14366,9198,-9106
1400,-28217,-18402,3802,-16078,9916,-5952
1410,-23056,-16280,10216,-15107,13287,-3957
1420,-21627,-12927,9309,-14582,10458,-4589
1430,-17707,-9048,10377,-15952,4401,-4471
1440,-13251,-7320,11659,-17352,-2245,-4700
1450,-4118,-6718,10105,-15551,-6188,-4824
1460,-2359,-5868,6520,-13640,-2335,-4187
1470,-1871,-4759,6183,-12483,-609,-4037
1480,-1353,-2239,4016,-11194,1906,-4047
1490,-851,-371,3879,-10398,1830,-4068
1500,-1647,645,6335,-9143,4794,-2864
1510,-5040,-978,10186,-7013,9012,-1512
1520,-4100,-440,9348,2989,11072,3209
1530,-2580,828,7359,6354,7914,4925
1540,-219,73,5580,8038,4196,5469
1550,1025,-3778,5630,12086,-3703,3409
1560,1167,-2255,3378,13883,-6579,2386
1570,724,-2716,1131,13866,-10632,1147
1580,-1218,-6112,1988,12095,-21317,-966
1590,-4437,-10050,2542,11841,-26509,-1792
1600,-11509,-16165,2222,13075,-31062,-2573
1610,-25946,-32764,9179,17127,-25597,-596
1620,-23765,-32764,12661,20500,-15936,2914
1630,-23431,-32764,13353,24978,-9409,4140
1640,-27444,-32764,8354,28323,-4939,3481
1650,-23614,-32764,4165,32692,47,4198
1660,-20923,-32764,-2143,32566,-1196,4518
1670,-21152,-28795,1706,28121,-2937,3081
1680,-32764,-22076,6182,12550,-9665,-546
1690,-32764,-20948,9980,5959,-13106,2958
1700,-28409,-21488,9900,3096,-18734,4732
1710,-19485,-19431,6611,-620,-25766,2305
1720,-16611,-18013,4822,-2491,-28806,1532
1730,-13775,-16846,3780,-4045,-28772,1783
1740,-11728,-16303,2990,-4717,-26680,2440
1750,-1995,-10329,1595,-2268,-18407,4435
1760,2518,-7014,-2264,-116,-14688,4264
1770,8027,-3058,-3751,434,-12981,3778
1780,13123,11869,-12357,-2754,12008,-3142
1790,10659,11465,-12871,-5612,17755,-3802
1800,6140,8434,-10233,-8286,20516,-5029
1810,-3913,2365,-2197,-11463,21172,-3186
1820,-7077,-2200,3260,-12389,20850,-2077
1830,-9156,-7155,11892,-12351,21017,-1742
1840,-23005,-17212,31270,-3941,16408,-585
1850,-29061,-18857,32764,3618,7688,1259
1860,-27819,-13435,32764,13002,-6023,4079
1870,-18737,-4826,32764,23840,-15355,7938
1880,2440,-13701,-20182,27351,2492,6519
1890,771,-26537,-32748,27960,7910,180
1900,1229,-31211,-32748,12957,-5422,-2504
1910,5154,-23779,1776,-10775,-7547,-1269
1920,-1962,-18231,15952,-14317,1839,-5260
1930,-19679,-18324,18252,-12034,21003,-10100
1940,-24144,-17733,-15304,468,29982,-10441
1950,-20602,-21428,-23430,1597,10691,-8186
1960,-21040,-24019,-11223,-9684,9029,-7266
1970,-22935,-24634,-338,-21158,17041,-8853
1980,-32764,-29931,27603,-30794,32765,-15304
1990,-32764,-30694,15957,-17736,27309,-12845
2000,-30006,-17786,-5476,-16037,5506,-6494
2010,-25011,-19447,7362,-25490,7130,-4934
2020,-24686,-19336,13353,-26143,6403,-4764
2030,-20456,-17251,10762,-23067,1869,-3489
2040,-11634,-12874,10540,-21417,-5843,-3659
2050,-6717,-12257,12925,-21397,-8597,-4229
2060,-5982,-10946,10976,-19679,-8629,-4404
2070,-313,-6024,7513,-15451,-4235,-2456
2080,1,-5112,6235,-13508,1210,-3201
2090,904,-3155,5189,-11875,5804,-3749
2100,1705,-700,4930,-10566,8720,-3648
2110,-1268,1921,9351,-7817,8659,-2777
2120,-6436,-2076,10981,-4835,10309,-2129
2130,-6758,-2826,10074,-135,11071,-72
2140,-4139,240,6750,7475,6372,4779
2150,-3167,-146,2919,9523,3180,5679
2160,-808,-764,412,11360,649,5617
2170,240,-1314,-97,12816,-2334,4674
2180,2741,-2056,2340,11120,-14102,3006
2190,1366,-5377,6008,9120,-21577,1688
2200,-2829,-9546,4987,9497,-28686,32
2210,-19273,-25815,5978,12141,-32701,-1675
2220,-21087,-32764,11294,15533,-28242,804
2230,-20582,-32764,12116,26806,-7950,5139
2240,-24028,-32764,11146,31495,-3205,4445
2250,-26009,-32764,7456,32752,2043,3854
2260,-25381,-32764,1990,32765,4017,3661
2270,-22886,-31285,-2418,31225,-7095,1272
2280,-27266,-28540,-1498,23589,-10732,-949
2290,-29454,-26829,8736,15075,-10580,117
2300,-28923,-25849,8902,10454,-12762,4921
2310,-24703,-25977,5616,7650,-21193,4482
2320,-21363,-25185,8401,3802,-28182,3436
2330,-15004,-17423,4826,-2229,-29524,4424
2340,-12981,-14778,6606,-4103,-31276,3811
2350,-13303,-11856,2810,-4229,-27709,3839
2360,-4718,-7715,2216,-4017,-21802,4552
2370,537,-4230,-812,-2351,-17645,4605
2380,6897,-672,-3847,-1558,-14549,4660
2390,17161,6109,-4799,-2273,-8044,1534
2400,18169,6952,-5361,-2546,-2834,10
2410,19918,10615,-9167,-3566,4365,-586
2420,16141,11504,-10812,-5400,9189,-2784
2430,9617,10347,-10686,-8844,17272,-4947
2440,5021,7369,-8675,-10419,19753,-4972
2450,-6841,-583,-2441,-12388,22033,-3110
2460,-10782,-6415,2589,-12373,22304,-2177
2470,-12427,-11952,11031,-11281,22184,-1836
2480,-24488,-23403,32020,-2056,12648,-908
2490,-28316,-26056,32764,6152,1411,1547
2500,-32731,-20771,32764,15115,-14842,4085
2510,-22763,-6344,32764,25859,-26400,9137
2520,6910,-13251,-31588,32765,4998,7058
2530,11133,-26425,-32748,30199,6151,-265
2540,9136,-26008,-32748,10003,-12391,-2339
2550,8108,-18287,2707,-12190,-8797,521
2560,-4013,-18037,5117,-13394,11857,-5310
2570,-17890,-18946,711,-10976,29974,-10660
2580,-26552,-23138,-23251,-3682,32566,-12387
2590,-25355,-27921,-14432,-3540,10024,-9272
2600,-23800,-27833,-2973,-16127,10782,-8203
2610,-28712,-27896,3727,-29671,28097,-12410
2620,-32764,-32764,29405,-27575,29922,-16399
2630,-32764,-32023,11474,-15036,7360,-13440
2640,-32764,-21555,1647,-15352,-1994,-8062
2650,-16567,-14427,8253,-23842,-5778,-1490
2660,-2762,-10297,8634,-25836,-7237,400
2670,1651,-9901,10864,-24488,-5558,14
2680,2553,-9275,7900,-21150,-4699,-1213
2690,332,-8312,6591,-19349,-3022,-2687
2700,-278,-2482,3167,-15378,2490,-1943
2710,2281,458,3810,-12168,8465,-10
2720,3350,4007,15165,-4657,15949,2752
2730,-2144,856,16416,1170,12918,2176
2740,-2863,-2394,6575,9151,7916,4198
2750,-512,-3393,5085,10772,6951,5306
2760,2777,-4223,3886,13643,2132,4909
2770,1392,-2635,2033,15594,-11326,225
2780,-3037,-4162,4508,12582,-18942,-1358
2790,-5556,-7002,4516,10584,-25923,-1203
2800,-8102,-8866,1321,11234,-31434,-1373
2810,-26479,-27749,-1386,16682,-31997,-3901
2820,-28510,-32764,4787,16785,-25450,-331
2830,-21135,-31779,10766,18398,-18468,4587
2840,-22687,-32764,14516,26009,-13011,3498
2850,-19733,-32764,12711,29968,-5573,3245
2860,-15944,-32764,8023,32686,-786,2864
2870,-21860,-32764,-3293,32756,-1421,-2191
2880,-27869,-29346,-3563,29786,-3597,-3808
2890,-29604,-23279,8110,12502,-6602,1068
2900,-26557,-23653,8990,9468,-9169,3971
2910,-29405,-24586,3599,7190,-17157,3965
2920,-24142,-22759,7364,2770,-23465,4772
2930,-17131,-16234,1357,-939,-26590,6642
2940,-15862,-13510,589,-3404,-27579,7942
2950,-10325,-9915,1681,-3751,-27245,9376
2960,1604,-3900,-3377,-1896,-21559,8513
2970,7676,-1016,-2682,-2299,-21177,6759
2980,12434,1943,-4649,-1378,-18418,3870
2990,14374,5069,-7768,-900,-13800,1881
3000,19275,12223,-10047,-2538,-2323,286
3010,17971,14423,-14983,-4115,5063,-1132
3020,16820,13978,-17863,-7096,13088,-2898
3030,10031,6964,-10785,-12036,24601,-6323
3040,4052,3144,-4579,-13546,25621,-6633
3050,-1625,-1181,899,-14208,26042,-6007
3060,-10903,-11182,12419,-12840,28441,-3360
3070,-18269,-16886,24626,-11532,26878,-2832
3080,-31999,-27238,32764,-5604,18711,-1966
3090,-32710,-18631,32764,17232,-18055,4715
3100,-26738,-8725,32764,24467,-22971,8866
3110,-18086,-10000,23616,30737,-20847,11052
3120,-1008,-32764,-32748,29878,-7645,3442
3130,5043,-25262,-32748,12875,-14533,103
3140,9365,-13336,-22876,902,-19091,709
3150,10080,-2161,6090,-12916,-6387,778
3160,-2995,-8608,-7535,-9503,23635,-4122
3170,-11366,-18351,-19400,-3142,32736,-7215
3180,-25659,-32764,-6681,-3261,31629,-9207
3190,-31932,-32764,-1554,-24446,31490,-11707
3200,-32764,-32134,9845,-31720,32761,-14042
3210,-32764,-32764,20042,-22644,27601,-14010
3220,-32764,-27379,-2979,-11057,7984,-15285
3230,-32764,-20994,-6118,-18343,3928,-11985
3240,-28970,-18678,2453,-27091,830,-6843
3250,-24136,-22414,12938,-28719,2021,-3047
3260,-21396,-20597,11580,-26280,139,-2964
3270,-15475,-17345,7991,-25475,-1320,-1804
3280,-12771,-17788,9592,-26132,-5528,-2260
3290,-4540,-13843,9781,-23957,-7093,-1023
3300,-2226,-10477,6840,-21477,-2905,-1191
3310,28,-7252,6487,-19699,2435,-3294
3320,2708,-3439,8409,-17994,5264,-3059
3330,5886,1552,12013,-14020,9839,-2800
3340,-36,5524,15769,-8440,14998,-3069
3350,-6406,726,12857,1929,11778,-1887
3360,-5972,-147,6850,5773,8652,111
3370,-5251,465,2718,7652,6274,1919
3380,-4961,1086,3108,8399,4671,3600
3390,-930,460,3469,11519,1564,4367
3400,1320,-1734,4066,14342,-4682,3185
3410,-1074,-6829,6701,8128,-20699,-271
3420,-4043,-8452,2454,5748,-30358,-1033
3430,-10786,-13890,-1924,6642,-32765,-1906
3440,-18995,-23772,-2313,9261,-32766,-2631
3450,-20487,-31212,3872,14445,-21705,3525
3460,-19716,-32764,10784,17950,-16507,4818
3470,-23848,-32764,16524,21167,-13237,3356
3480,-17252,-32764,10908,31618,1072,4509
3490,-15322,-32764,4706,32766,5655,4205
3500,-16741,-32764,-1039,32766,5565,1713
3510,-22309,-32165,-4487,32695,2054,-2403
3520,-26497,-21087,3481,4659,-12799,6210
3530,-19307,-21216,5130,2578,-14886,8583
3540,-16501,-16670,-4543,1905,-18628,7192
3550,-14122,-14211,-2162,-1741,-23470,8766
3560,-9427,-11438,-127,-2215,-25127,11492
3570,6522,-2789,-3881,-271,-21166,11464
3580,10415,725,-3403,-661,-19054,7695
3590,14375,4351,-3781,42,-15868,4333
3600,17924,12443,-9136,779,-6120,711
3610,17489,14279,-13805,-1106,11,-468
3620,17281,13242,-16946,-4377,6810,-1637
3630,12403,8344,-11716,-9496,19282,-5040
3640,6234,4300,-6236,-11017,20336,-5949
3650,965,312,-1168,-12393,21145,-5539
3660,-3079,-4128,3513,-13208,22417,-4582
3670,-13084,-11980,19783,-12818,23151,-3346
3680,-23318,-17700,32764,-9611,17210,-2451
3690,-32764,-23551,32764,-748,5491,359
3700,-29088,-9165,32764,23285,-23505,8403
3710,-14226,-8201,28151,29514,-25613,10794
3720,-5451,-21193,-26292,29876,-10100,8087
3730,-1673,-29725,-32748,29057,-4739,4042
3740,1512,-25915,-20808,-611,-9152,623
3750,3167,-17607,-7024,-7476,-9228,-162
3760,-12746,-12927,-12485,-9189,16731,-6791
3770,-16410,-17629,-19999,-9043,25669,-5784
3780,-19175,-24447,-15338,-11264,21199,-4727
3790,-25597,-31225,1682,-21240,22294,-8842
3800,-30070,-32018,9826,-29325,32455,-13218
3810,-32470,-32764,18511,-23993,31248,-13678
3820,-32301,-32241,11827,-12686,18295,-13163
3830,-30509,-21371,-3326,-16289,7773,-10384
3840,-24587,-22125,3693,-24016,4322,-6064
3850,-23350,-23189,11353,-27536,1759,-4926
3860,-22419,-18496,10017,-23269,665,-4973
3870,-17119,-15261,11213,-23043,-791,-3955
3880,-14698,-15595,12460,-22578,-4827,-4280
3890,-11847,-13975,10168,-21448,-8076,-3669
3900,-5204,-8532,5505,-19972,-5434,-261
3910,-2313,-5853,3813,-18341,326,-224
3920,1420,-4805,5864,-16579,5670,-424
3930,7558,1203,12788,-10345,11920,-1243
3940,5080,4262,13951,-6252,11450,-1839
3950,-5128,-1297,13047,240,9871,-339
3960,-4586,-1044,8932,4263,7957,1671
3970,-4344,837,3391,7522,6204,3205
3980,-5457,1937,673,8409,5684,3596
3990,-4513,1378,3178,10816,2481,4598
4000,-1574,-800,5631,13598,-1392,5194
4010,681,-3803,7732,13900,-6859,4685
4020,-2034,-9544,3422,8827,-26660,2364
4030,-7083,-13289,-933,8829,-32464,1132
4040,-15454,-22635,-270,10449,-32766,254
4050,-15004,-32764,10141,17359,-20716,5579
4060,-14254,-32764,12134,23340,-11038,6370
4070,-17542,-32764,13103,28416,-6003,5078
4080,-20386,-32764,12342,31920,261,4268
4090,-17870,-32764,2829,32766,7985,3527
4100,-20546,-32764,-2269,32765,4886,1254
4110,-24723,-30931,-2241,31745,-1880,-2605
4120,-32764,-25521,4547,14586,-11158,-2350
4130,-32764,-27045,11056,9432,-13575,2149
4140,-30181,-28938,7880,9316,-17657,5244
4150,-21674,-27407,8880,8201,-21487,6450
4160,-15850,-20748,3725,4406,-22134,6651
4170,-15403,-17742,929,3235,-24584,7060
4180,-8504,-11209,1640,934,-23527,9330
4190,-2485,-7061,-655,1677,-20857,8984
4200,3079,-3672,-2451,1942,-17963,7160
4210,12213,4440,-3475,1257,-11077,3941
4220,18783,8392,-5386,500,-4647,2551
4230,21339,11829,-8238,-240,2472,222
4240,19632,13125,-13371,-4060,12346,-4718
4250,16377,11241,-13566,-5900,16664,-6511
4260,11606,9517,-11713,-7417,20436,-7393
4270,4529,7388,-8775,-9102,21909,-7174
4280,-7720,-1552,1006,-12581,23005,-3988
4290,-9677,-7111,7291,-13083,23611,-2290
4300,-12287,-11804,17708,-12930,23077,-2147
4310,-20971,-16005,30778,-10670,19067,-2799
4320,-32764,-16254,32764,7648,-3671,2459
4330,-20865,-5717,20742,16643,-12135,7606
4340,-11842,215,26024,21008,-11369,9349
4350,6453,-16112,-27129,26354,8924,6979
4360,6888,-29517,-32748,22690,3494,1934
4370,4208,-32764,-22193,7334,-7015,-1520
4380,1513,-32764,2193,-9240,-8945,-1681
4390,-14086,-19964,6568,-9261,23517,-8039
4400,-17655,-26016,2142,-22015,16286,-8041
4410,-27173,-27922,8214,-27672,30887,-14065
4420,-32764,-31659,19509,-27166,32766,-16110
4430,-32764,-31351,14546,-14012,27576,-14279
4440,-32764,-18423,-1946,-12062,12169,-11762
4450,-32764,-15854,6063,-19948,11710,-7833
4460,-27125,-18282,11155,-22323,8332,-4525
4470,-20496,-16095,8169,-19944,-82,-4304
4480,-17955,-13886,7613,-20468,-4779,-4612
4490,-14034,-14692,11857,-21841,-8980,-4471
4500,-10467,-13061,9372,-21472,-9936,-3280
4510,-1980,-9478,3715,-19574,-7265,-1458
4520,-864,-9814,4821,-19921,-6559,-3253
4530,-4,-8001,7766,-20118,-3779,-3696
4540,3714,-3081,9477,-17485,1115,-2490
4550,5216,5456,13407,-7566,12589,-1614
4560,100,4773,15124,-1409,14381,-1115
4570,-5397,1623,9205,5308,14704,23
4580,-7807,2296,3688,10381,14000,4269
4590,-7518,2088,6130,11207,13552,6290
4600,-4316,-1090,7069,13702,10420,8088
4610,1744,-6570,5524,15188,-6606,5946
4620,2585,-8223,4876,11028,-17571,3859
4630,1764,-9535,3668,7100,-29320,1851
4640,-10061,-15981,-4185,8285,-32766,-2156
4650,-18819,-27359,1435,9261,-32766,-3558
4660,-21044,-32764,12915,11774,-31304,-2489
4670,-18128,-32764,15204,28378,-6710,2452
4680,-22240,-32764,13286,32599,-1620,1930
4690,-24220,-32764,8342,32766,4682,981
4700,-20917,-32764,-1432,32766,2464,1527
4710,-20470,-32724,-1941,32643,-1833,-1503
4720,-25146,-29183,33,28467,-2331,-5686
4730,-31350,-24948,-1688,19934,-3794,-5295
4740,-31168,-24330,9674,9776,-9500,3230
4750,-25993,-23230,6893,9245,-15438,5011
4760,-22540,-20650,5652,7254,-18089,4996
4770,-18286,-15817,-1762,1673,-21346,7271
4780,-13754,-13575,-2103,352,-25303,9021
4790,-6340,-10558,-1014,-256,-26553,9555
4800,7512,-2936,-3084,568,-19085,6781
4810,13120,948,-3455,1603,-16045,3601
4820,17054,5578,-5748,1923,-11178,1159
4830,22971,13902,-8476,963,-789,-1239
4840,21842,17264,-14727,239,5907,-3057
4850,17578,16015,-20656,-2746,13076,-5223
4860,8321,7064,-11975,-10201,24280,-7541
4870,2617,2435,-6395,-11781,25075,-7522
4880,-2132,-1487,-1577,-12945,25191,-6790
4890,-10260,-9344,10146,-13736,26537,-4637
4900,-16363,-14211,21670,-13289,24506,-3951
4910,-29052,-20241,32764,-9264,19141,-3208
4920,-32764,-23918,32764,1693,8071,471
4930,-19655,-1448,27182,19503,-12770,11735
4940,-8473,3612,19249,25639,-11357,12208
4950,6520,-2084,-19310,30020,-2279,10100
4960,12302,-28423,-32748,14211,65,2044
4970,6157,-32764,-6143,-4777,-3335,-1150
4980,-6806,-32764,18450,-22828,3105,-2056
4990,-14276,-29417,8967,-17694,23260,-2991
5000,-22682,-21316,-22166,9927,9751,-10999
5010,-22399,-17962,-25520,844,357,-8039
5020,-20484,-16937,-14646,-14397,-687,-3849
5030,-24277,-28653,8494,-27401,22365,-11549
5040,-32603,-32764,15438,-26152,32578,-16460
5050,-32597,-28156,5101,-17191,27097,-15012
5060,-28464,-19959,1170,-12704,11498,-10346
5070,-27037,-19680,6047,-18403,11382,-8978
5080,-25785,-20819,10668,-21649,6514,-8068
5090,-19015,-16304,10064,-19107,389,-5910
5100,-16179,-14349,9503,-18021,-1108,-5345
5110,-14563,-12799,11130,-17724,-5346,-5496
5120,-10670,-10888,8929,-17917,-8365,-4567
5130,-6811,-7473,2124,-16937,-5072,-1914
5140,-1873,-4920,2510,-18049,-1535,-1423
5150,976,-5007,7314,-18968,2013,-3534
5160,3529,-89,10838,-14117,1954,-3678
5170,2199,2881,11697,-9665,4833,-2937
5180,-2594,2047,11739,-4474,10516,-1994
5190,-4360,1803,5469,5267,10091,1614
5200,-4354,3940,4775,6350,7741,3658
5210,-4464,2512,7478,7818,5007,4920
5220,-1131,-3875,4638,15932,585,4680
5230,807,-4426,3933,16375,-3051,3534
5240,2089,-4069,3114,14885,-9514,2419
5250,1701,-5562,4082,12197,-17489,1453
5260,-3742,-10837,2435,10632,-32041,-420
5270,-16563,-32764,12387,23639,-10614,5173
5280,-22632,-32764,11263,32704,6166,5469
5290,-24222,-32764,8397,32766,11050,4278
5300,-21846,-32764,1503,32766,11165,4328
5310,-20702,-32764,-3151,32760,5554,3599
5320,-30369,-26364,1156,17255,-5505,-1495
5330,-32171,-25179,15725,8516,-7586,1146
5340,-31905,-24389,12263,8922,-11201,5199
5350,-26497,-24805,10402,9097,-18636,7158
5360,-18805,-18241,200,3048,-25895,5850
5370,-16841,-16819,2001,-1092,-30769,5743
5380,-15737,-14938,-562,-2001,-30663,6962
5390,-3265,-9772,356,-1702,-22276,7821
5400,647,-5878,-2567,-725,-17902,6497
5410,7308,-2087,-1272,-213,-16004,5423
5420,15363,4191,-2518,871,-8833,1600
5430,20845,8583,-4556,-101,-2160,1115
5440,22139,13249,-7217,-1517,4573,-397
5450,15874,13214,-14548,-5664,16332,-5521
5460,13030,10543,-13137,-8272,21929,-7112
5470,7939,7656,-8908,-10568,25069,-8292
5480,372,3959,-4930,-11924,25279,-8681
5490,-13665,-9937,11318,-13523,22136,-3900
5500,-19685,-15006,23046,-12218,19721,-3320
5510,-31558,-21932,32764,-6765,12416,-2091
5520,-23827,-11108,23622,18143,-14702,8115
5530,-14092,-2826,27590,22673,-14039,10554
5540,-713,-2322,1778,27094,-6692,10973
5550,10921,-24850,-32748,23042,2298,3803
5560,10188,-32681,-19965,7074,-576,355
5570,3682,-32764,2245,-9033,-2277,-2478
5580,-15532,-21630,1493,-11869,3813,-4607
5590,-21431,-20081,-12806,94,24295,-12189
5600,-20501,-18272,-22943,1614,20770,-10006
5610,-18476,-17618,-23940,-2568,10917,-6727
5620,-18621,-25645,1725,-19646,12941,-8840
5630,-30007,-29839,14636,-26802,29145,-15490
5640,-32764,-32764,25280,-25479,32704,-17195
5650,-31600,-22925,-5515,-8085,6405,-11350
5660,-29685,-16268,-7023,-15775,6653,-10556
5670,-27674,-19550,9386,-24911,8645,-9728
5680,-24733,-19008,6728,-22192,2211,-6421
5690,-19898,-16934,5092,-22259,-2149,-5334
5700,-16101,-14821,8416,-23303,-5816,-5626
5710,-8957,-15151,11859,-21842,-10855,-3932
5720,-5723,-12646,7915,-20032,-9156,-2824
5730,-675,-10178,4009,-18739,-5407,-1847
5740,1130,-6690,5840,-17767,-1541,-4482
5750,2899,-3133,9104,-16487,878,-3388
5760,5342,1325,8943,-13327,4800,-2097
5770,-1674,3477,12752,-9426,11430,-2576
5780,-7225,1522,11956,2442,14239,-1878
5790,-7537,2286,9902,8754,14788,694
5800,-7208,3448,8172,12156,14386,3711
5810,-2478,-65,4499,15043,8529,7556
5820,550,-3721,5943,16033,1365,6948
5830,2285,-4575,4932,16530,-4746,5039
5840,66,-6641,2641,11055,-25485,1045
5850,-2962,-8874,-1331,9308,-32196,277
5860,-9772,-14090,-3069,9599,-32766,-909
5870,-18858,-22158,603,11225,-32767,-2021
5880,-19249,-32764,14426,16789,-23488,3274
5890,-17670,-32764,14400,23055,-12762,5721
5900,-20001,-32764,14542,28167,-8014,4840
5910,-21699,-32764,7740,31271,-1573,3788
5920,-19312,-32764,2079,32765,5213,3749
5930,-19460,-32764,-2162,32766,2368,1379
5940,-27031,-27300,-4812,21401,-4317,-4637
5950,-32742,-24348,8583,11368,-8847,-1799
5960,-30707,-25552,12320,8471,-12862,2603
5970,-21104,-22697,7890,7590,-19841,4804
5980,-20808,-19992,2170,6021,-17555,5470
5990,-18979,-16640,-1925,3656,-19157,7215
6000,-15086,-13807,-1788,324,-22829,9234
6010,-2738,-6636,-2049,-606,-23131,9251
6020,2406,-3435,-3483,16,-20173,7285
6030,9531,73,-3914,22,-17287,5657
6040,14706,4188,-3861,-9,-14498,3185
6050,22733,10516,-5632,390,-2846,-467
6060,22946,14191,-10041,-231,4172,-2147
6070,19850,15247,-15328,-2404,10751,-4621
6080,12525,10392,-13611,-8281,23000,-7990
6090,6223,6464,-9039,-10314,25289,-8684
6100,-638,2206,-4780,-11907,25158,-8364
6110,-11572,-5989,4259,-12920,25121,-5268
6120,-14622,-11169,13082,-12549,23673,-3798
6130,-23672,-16821,26815,-11051,20602,-4179
6140,-1889,-295,8258,24871,-702,11029
6150,6253,-11987,-28323,27287,9823,8503
6160,9467,-25786,-32748,23037,1645,3185
6170,5741,-32764,9272,-9926,-3892,-1819
6180,603,-20764,22555,-16058,3976,-1912
6190,-14558,-17607,1554,-8780,20548,-8393
6200,-21741,-16884,-32748,2972,4761,-9492
6210,-20287,-21177,-25756,-12513,1820,-4401
6220,-18717,-25463,-4558,-24735,1782,-3927
6230,-26462,-29596,12664,-29512,15113,-10285
6240,-32764,-32764,11183,-17665,24071,-15922
6250,-31153,-28086,-8326,-8150,247,-13531
6260,-28720,-20545,-8696,-16659,274,-10697
6270,-18110,-23632,14170,-30171,6027,-4426
6280,-18574,-23251,12969,-28029,-804,-4926
6290,-18293,-22249,8410,-24133,-4275,-5200
6300,-14157,-16729,10422,-21497,-2458,-3798
6310,-10751,-17213,14747,-20364,-4572,-3100
6320,-8924,-14261,11389,-17878,-4101,-2582
6330,-7141,-10222,6629,-16166,-3642,-2672
6340,-2584,-4515,447,-15872,1766,-3600
6350,246,-1089,4468,-16472,3635,-3706
6360,3357,3713,11003,-11766,5088,-3556
6370,923,3872,12138,-6891,7008,-3138
6380,-4803,729,11991,-1434,10752,-1990
6390,-6722,27,8230,8477,14813,3625
6400,-5905,1524,5557,11177,14521,6349
6410,-4809,1811,3984,12497,12899,7919
6420,-3477,-661,6400,14172,7005,8091
6430,1412,-5362,7643,15749,-7340,5902
6440,2453,-6603,6061,12501,-17920,3938
6450,-805,-8407,1444,9783,-29320,1935
6460,-14447,-18785,-2823,9027,-32767,-1168
6470,-21476,-30345,5225,10777,-32766,-2143
6480,-22065,-32764,12078,14355,-28660,176
6490,-16516,-32764,14530,21434,-13740,4440
6500,-22329,-32764,11250,32653,754,4614
6510,-23814,-32764,5941,32766,5783,3321
6520,-21553,-32764,1344,32766,3985,3658
6530,-18778,-31671,-2474,32044,-1660,137
6540,-26868,-28769,-7054,25030,-1829,-2930
6550,-31778,-25648,6552,13497,-5359,-1122
6560,-32172,-26248,13208,8554,-7507,3453
6570,-22212,-24236,6930,9359,-16567,5976
6580,-22222,-21467,1858,7689,-15365,5707
6590,-16293,-15750,-1680,1405,-20745,9771
6600,-12198,-11748,-1715,591,-23680,10813
6610,-4856,-7498,-1023,334,-24037,10608
6620,8990,-1298,-1226,-516,-17728,6619
6630,14990,2018,-1942,43,-13233,4236
6640,17963,5727,-3187,1241,-8828,2811
6650,23319,14210,-9327,1059,4186,-736
6660,20062,15805,-13338,-2791,10090,-3951
6670,16632,13476,-14290,-6049,16334,-6651
6680,12968,11017,-12213,-8408,21130,-8297
6690,1173,3409,-5040,-11644,22839,-9549
6700,-4036,-1424,-1461,-12666,22503,-8550
6710,-8197,-5638,1640,-13059,21645,-7165
6720,-16198,-12991,18042,-13142,16206,-5207
6730,-25321,-16588,30526,-8906,10522,-3718
6740,-32764,-19573,32764,-544,1628,-324
6750,-28091,-11119,23480,12369,-10476,6439
6760,-8019,2574,21181,21173,-5347,11962
6770,2423,-2135,-12897,25655,6053,11352
6780,7563,-13891,-32748,23399,12473,7234
6790,4029,-32764,-4536,-515,138,-408
6800,-4725,-32764,9824,-14941,6087,-2018
6810,-19138,-22117,-1351,-1519,19273,-7689
6820,-20283,-19402,-17275,3848,15535,-9984
6830,-18187,-15315,-26222,1482,5267,-7880
6840,-15222,-22092,-6878,-8475,955,-4447
6850,-20496,-26800,5743,-22306,12799,-10764
6860,-32764,-32764,21798,-25002,29219,-17605
6870,-32764,-32764,15328,-18294,30795,-17263
6880,-31780,-18476,-9627,-10315,5242,-12510
6890,-28630,-18451,-779,-21067,9632,-9727
6900,-26804,-21506,13483,-26665,7952,-7877
6910,-23521,-19786,6381,-23051,-1314,-6292
6920,-19104,-17634,7595,-23440,-3778,-5550
6930,-13557,-15907,11922,-23378,-6201,-5405
6940,-10031,-15672,12085,-19438,-9733,-5421
6950,-6356,-12296,7322,-18180,-7661,-3060
6960,-1352,-8661,4089,-18655,-5897,-2003
6970,744,-7488,5764,-19295,-3427,-3664
6980,5291,-419,9593,-15719,1155,-3797
6990,4111,2850,7651,-11062,4195,-3763
7000,942,4728,8462,-6402,6362,-4049
7010,-4123,1778,6371,14269,11348,8619
7020,-2465,-2113,5841,16003,5626,8104
7030,1898,-7244,7302,16440,-553,4958
7040,2200,-7505,4979,12193,-19850,3067
7050,-1033,-9069,-343,9841,-29972,1608
7060,-5784,-12357,-4998,9172,-32759,158
7070,-18602,-29420,6531,9953,-32760,-1690
7080,-19219,-32764,14783,13164,-28986,816
7090,-14682,-32764,16958,19303,-16634,4546
7100,-18829,-32764,12354,30753,-1898,3088
7110,-21676,-32764,7798,32662,3185,1296
7120,-23563,-32764,2273,32766,3815,799
7130,-23006,-32764,-634,32766,587,556
7140,-28995,-28302,-2520,23808,-3406,-3698
7150,-30305,-25402,6551,14291,-7859,-1304
7160,-29804,-25946,9841,9883,-9949,3124
7170,-18220,-25956,7305,8853,-16741,6942
7180,-17231,-23519,5348,7166,-13913,6754
7190,-16862,-19712,644,4950,-13208,7756
7200,-14610,-16621,433,1997,-18223,9214
7210,-7718,-11933,22,-472,-19861,9840
7220,-1456,-8207,-1362,-76,-17573,9211
7230,10437,563,-3344,1092,-13424,5292
7240,15415,4402,-261,1061,-11534,3255
7250,20824,7388,-2949,1626,-5986,851
7260,19590,14221,-10496,10,5935,-4394
7270,15198,14871,-14126,-2321,10579,-6547
7280,13429,12479,-15913,-4921,14906,-7445
7290,5235,5160,-8923,-10399,20788,-8806
7300,-1063,1225,-4217,-12237,20875,-8456
7310,-5927,-2683,1799,-13921,20315,-7170
7320,-12373,-10470,20115,-14671,19817,-5573
7330,-25600,-16025,32764,-11397,16723,-3557
7340,-32764,-23355,32764,-841,5988,153
7350,-32764,-14318,28238,16260,-10724,7509
7360,-5224,-21,13752,27822,-3688,14233
7370,8184,-10561,-31124,28747,12154,11150
7380,8889,-24021,-32748,25440,6029,3930
7390,1038,-32764,1889,-12855,-3532,-2711
7400,-5847,-32718,19261,-19027,769,-3161
7410,-18036,-20612,10282,-8970,18207,-6340
7420,-17110,-13055,-31820,4731,9248,-6315
7430,-13002,-16191,-31290,-3529,769,-2968
7440,-13276,-24159,-11699,-17885,8675,-3118
7450,-26732,-32730,14027,-23581,24465,-13104
7460,-32764,-32764,26786,-25909,32588,-17149
7470,-32764,-32660,9039,-14887,26093,-15236
7480,-28777,-17829,-7849,-11424,8519,-10747
7490,-28853,-17803,5686,-20437,14160,-9763
7500,-28519,-18974,13079,-22489,10182,-8264
7510,-20361,-16459,5919,-20485,-3899,-5978
7520,-13894,-14173,7150,-21911,-7357,-5268
7530,-9575,-14518,11987,-22153,-9883,-5524
7540,-4900,-12058,10149,-20079,-8103,-4106
7550,-3120,-9013,5736,-17366,-4240,-2606
7560,-731,-5997,3078,-17363,-1890,-2251
7570,810,-5621,6946,-18422,-1787,-4163
7580,1899,-37,8507,-13634,3325,-4284
7590,1085,2779,6636,-8996,7646,-3559
7600,-1577,4018,8429,-4899,11211,-2652
7610,-5236,2959,10912,-419,12215,385
7620,-5474,3077,12182,6428,8313,2677
7630,-3981,603,9254,9394,4562,4827
7640,-1851,-2156,3708,12948,2295,5304
7650,63,-3143,130,15775,-1823,3428
7660,1907,-2969,39,15363,-7441,2735
7670,1167,-3740,2498,13119,-14619,1682
7680,-2883,-8936,5754,10389,-30165,350
7690,-8780,-14333,4060,11933,-32725,-606
7700,-16138,-25188,6404,14821,-32760,-1686
7710,-17218,-32764,11668,22753,-14315,3530
7720,-16987,-32764,11227,28159,-2322,6573
7730,-21846,-32764,10718,32152,1204,5733
7740,-25179,-32764,2002,32766,10278,3781
7750,-21231,-32764,-2014,32766,6841,4212
7760,-20476,-29281,-2226,31841,2178,2126
7770,-25264,-27515,-3773,23715,-392,-1046
7780,-32764,-25453,15538,4541,-13051,2902
7790,-27205,-27919,15220,5147,-18489,6511
7800,-19560,-27495,11793,6779,-20087,6778
7810,-17414,-21654,-1485,3410,-20467,5227
7820,-13927,-18726,319,-679,-25711,6523
7830,-10493,-15794,-132,-1150,-26178,7049
7840,-5711,-12707,349,-791,-22933,6884
7850,4038,-5409,-2058,1154,-13849,5035
7860,9040,-1667,-1183,1481,-11378,3736
7870,13676,3343,-3058,1694,-8059,2493
7880,20486,10805,-2794,767,875,417
7890,11461,11189,-11614,-8343,19907,-7559
7900,6540,8351,-9047,-10533,23427,-8452
7910,-7355,-283,-2381,-12617,22085,-7758
7920,-12337,-4533,1125,-12480,20449,-6301
7930,-12985,-8747,6800,-12138,18209,-4683
7940,-17324,-13190,17108,-11352,16306,-4405
7950,-32764,-21644,32764,2155,432,-106
7960,-23652,-12442,23802,13931,-11239,7248
7970,-14524,-4018,19246,17185,-8480,10574
7980,1224,-5136,-10877,26853,4606,12003
7990,9270,-18936,-32748,24874,9078,8312
8000,10607,-29536,-30215,15556,-2198,2714
8010,9409,-32764,-8585,261,-4696,-368
8020,-1267,-22346,15342,-14319,4136,-3045
8030,-10293,-19000,-6412,-3576,15690,-9141
8040,-17002,-20295,-26279,7988,10717,-11929
8050,-17137,-23410,-18041,-10564,15651,-5648
8060,-15916,-24794,-1176,-18013,16698,-6368
8070,-26115,-27589,17881,-23199,26553,-11746
8080,-32764,-32390,27062,-23789,32754,-15520
8090,-32421,-26951,-8979,-1913,6230,-13693
8100,-32288,-19708,-9126,-11329,11131,-13308
8110,-27767,-22463,13968,-25470,7875,-9462
8120,-29915,-22460,8513,-23813,2446,-8854
8130,-30009,-20256,4716,-22303,-335,-8021
8140,-18530,-17905,13882,-24206,-5056,-4663
8150,-12417,-16642,14177,-23241,-7812,-3037
8160,-10206,-15487,9089,-21477,-10201,-2954
8170,-5652,-13454,5848,-21145,-11515,-2556
8180,1282,-9352,6008,-20445,-5488,-3660
8190,2037,-6541,7606,-18219,-2765,-4605
8200,5031,-2566,9997,-15663,1583,-3672
8210,4005,5938,9554,-7645,10366,-3117
8220,-2450,4501,11624,-3285,9355,-3414
8230,-8793,1283,11381,1309,10860,-2752
8240,-7613,2014,8009,10655,13724,3515
8250,-5011,1891,5365,13460,15408,6915
8260,566,-2440,6259,16718,9850,9609
8270,3269,-4333,10010,17576,-1179,8078
8280,2521,-5398,7895,16032,-13391,4760
8290,-6610,-8562,-5994,11256,-32196,273
8300,-15119,-16350,-7679,12040,-32766,-1087
8310,-20817,-26021,-1835,12558,-32766,-1118
8320,-17565,-32764,16829,15590,-23588,4450
8330,-17879,-32764,19229,20697,-17978,5566
8340,-19316,-32764,16085,25604,-11992,4542
8350,-21381,-32764,4230,32679,-259,1752
8360,-21566,-32764,-1275,32766,-797,1328
8370,-21144,-32764,-1173,32501,-1841,-2
8380,-29518,-25871,4293,19151,-7939,-2346
8390,-29020,-24883,10191,12797,-10694,872
8400,-24887,-25930,10393,12268,-16565,1991
8410,-24737,-25820,7023,11527,-20340,1852
8420,-16575,-20019,4850,5812,-19676,7616
8430,-14236,-17388,1546,5311,-19148,8929
8440,-12103,-14129,1055,4266,-18926,9833
8450,-1002,-6186,-2229,2297,-16833,11175
8460,4555,-1887,-4871,1169,-15861,10077
8470,11225,2144,-5029,-296,-16356,7618
8480,15422,4621,-2471,-533,-15772,4236
8490,21544,13242,-7994,-383,-2047,37
8500,18498,14971,-12229,-2473,4791,-2101
8510,13890,13778,-15361,-5006,11303,-4045
8520,7577,6772,-10916,-9184,20942,-5911
8530,2136,3053,-6474,-10385,22040,-6453
8540,-4661,-5747,1835,-10741,22404,-5077
8550,-6375,-9594,6503,-10473,22052,-4692
8560,-10323,-11685,15351,-9753,21163,-4538
8570,-18051,-14561,28258,-7507,16999,-3413
8580,-32633,-14967,32764,11035,-6189,4496
8590,-22958,-2300,32764,20227,-14160,9290
8600,-8036,2131,15534,27363,-8255,10938
8610,11673,-13097,-32748,25534,8738,3429
8620,13354,-21861,-26997,11048,670,395
8630,8284,-31675,-2181,-10689,2388,-740
8640,-12916,-29877,-3503,-17633,5358,-3454
8650,-21156,-29028,-17103,-230,23457,-13764
8660,-26213,-24984,-24575,-3378,20463,-14176
8670,-23967,-22459,-20991,-10536,8477,-9748
8680,-17738,-24275,1057,-21744,9048,-7757
8690,-28104,-30911,10721,-27024,27743,-14690
8700,-32764,-32764,19969,-26532,32720,-18221
8710,-32724,-24267,-649,-14975,10343,-11819
8720,-31730,-19244,-4873,-16357,7627,-9703
8730,-28395,-21047,6675,-23979,7318,-7308
8740,-26582,-20871,11417,-24072,7039,-6119
8750,-6175,-13843,10103,-21968,-8810,-3280
8760,-5759,-12852,8814,-20278,-5459,-3231
8770,389,-6583,2625,-16789,-2461,-4472
8780,274,-4283,3143,-16846,601,-5646
8790,2695,-355,4643,-15875,4870,-4252
8800,6347,7312,11154,-9401,12474,-1012
8810,-27,4713,17002,-5361,11134,-1294
8820,-7391,187,16789,-41,8947,-1570
8830,-5465,87,3392,10017,8552,3404
8840,-5065,122,-507,10846,10513,4530
8850,-4107,-681,3087,11148,9230,5200
8860,3102,-5047,10874,15055,-7517,5120
8870,2507,-6136,9244,12477,-17807,2458
8880,-393,-6338,2530,9112,-27251,742
8890,-4846,-6861,-4100,8376,-32508,-281
8900,-20409,-24529,18,11390,-32766,-2691
8910,-22644,-32764,6932,15335,-29927,-1576
8920,-24070,-32764,9667,20589,-15681,1647
8930,-29899,-32764,11824,29612,-8475,6238
8940,-27989,-32764,9915,30627,-3733,5981
8950,-21463,-32764,4366,32511,-796,6033
8960,-17598,-32764,1155,32766,-4544,5280
8970,-16878,-32764,-1500,28514,-5415,-113
8980,-24629,-30461,561,19750,-6732,-2262
8990,-22083,-24581,9705,12043,-13088,1852
9000,-24921,-24658,3234,12656,-17167,375
9010,-24463,-23125,971,9775,-17563,1944
9020,-18840,-17913,-4580,4399,-16847,9394
9030,-13291,-14395,-2959,1737,-20898,12326
9040,-5888,-10266,-1430,907,-23053,13158
9050,9587,-810,-4516,1887,-19593,10153
9060,14277,3151,-3795,1252,-18496,7022
9070,18344,8768,-3890,1165,-16620,4218
9080,21717,17998,-9568,675,-11459,2583
9090,21278,18253,-15688,-3287,7681,-1428
9100,19238,15910,-16667,-6401,17991,-3560
9110,14845,12596,-12674,-9698,24154,-5929
9120,977,5047,-5286,-12962,27187,-8252
9130,-3759,400,-1553,-13724,26132,-7683
9140,-6098,-4105,1669,-13380,25153,-6616
9150,-12970,-12582,15198,-12295,23360,-6549
9160,-22772,-18680,30069,-8581,14564,-5992
9170,-32764,-25677,32764,-1626,4102,-3028
9180,-31043,-19000,30920,8880,-11344,2396
9190,-12735,-2716,26297,19995,-13110,8295
9200,-3062,-2218,9098,27417,-11120,8784
9210,6683,-23871,-32748,25128,1071,4221
9220,5982,-31861,-24649,5957,-1091,2655
9230,872,-32764,-2405,-9636,-2401,746
9240,-6203,-28513,-1455,-7514,3396,-3285
9250,-16738,-20871,-20087,1318,8905,-10882
9260,-19523,-21665,-22447,-5385,14020,-8354
9270,-19721,-22089,-16832,-14022,14259,-4271
9280,-16645,-26468,6211,-19537,10984,-3133
9290,-30162,-32152,15238,-28820,32421,-16220
9300,-32764,-32764,13146,-19982,29861,-17021
9310,-32764,-32506,1777,-8863,15214,-15071
9320,-29748,-20324,-1190,-18332,17164,-9250
9330,-25518,-23077,11132,-24165,11260,-6757
9340,-25163,-23342,10712,-24463,4536,-6481
9350,-21070,-19452,7434,-22498,175,-6714
9360,-16671,-17252,10639,-22686,-5447,-5312
9370,-13687,-15979,12526,-23480,-9177,-4903
9380,-7183,-13437,14081,-22808,-9283,-3529
9390,-2477,-9816,6294,-17283,-4761,-5674
9400,-2259,-7267,5198,-16474,-2506,-5946
9410,1762,2115,6929,-13524,4925,-4180
9420,1669,5189,7419,-10278,9887,-3723
9430,25,5774,9626,-5651,11798,-3158
9440,-5721,2692,10797,-1422,12059,-2352
9450,-6952,1279,9818,5458,13115,3065
9460,-6310,1709,7778,7875,11969,5795
9470,-3277,399,5755,9735,8727,7184
9480,8,-5009,5084,14704,-1637,5707
9490,3041,-5714,5001,14753,-6233,4704
9500,1869,-7060,3394,12280,-14750,2543
9510,-8244,-12674,-3626,8735,-32663,-211
9520,-15704,-20236,-16,10463,-32766,-873
9530,-21098,-27514,5855,14173,-32325,22
9540,-20841,-30010,11235,17585,-25545,3480
9550,-17532,-32764,14307,23410,-12782,6807
9560,-18692,-32764,11909,27236,-5977,5239
9570,-18594,-32764,7819,31572,863,3767
9580,-21432,-32764,-2318,32766,3506,1530
9590,-20745,-32764,-2985,32272,-294,12
9600,-24287,-32764,-3404,25959,-4807,-2140
9610,-30903,-28546,10429,7432,-11298,2570
9620,-28685,-28766,9156,6423,-13939,4925
9630,-13550,-14892,-1572,2268,-20458,11105
9640,-8851,-10523,-80,718,-21562,12480
9650,-3157,-6584,-355,831,-20499,12062
9660,8583,298,-3123,1880,-17777,6542
9670,12030,4476,-4774,1607,-15834,3349
9680,17158,6229,-3086,767,-12935,732
9690,18832,15467,-10312,-1680,-604,-2978
9700,14035,17549,-15506,-4572,4673,-5258
9710,10511,16022,-18926,-8142,10222,-6691
9720,9878,10636,-16355,-11921,15238,-7247
9730,-14,1340,-6164,-16188,17314,-8286
9740,-5414,-3369,337,-17760,17051,-6957
9750,-8054,-8457,8023,-17997,17876,-4975
9760,-23404,-22344,32764,-11272,18917,-3092
9770,-32764,-32717,32764,361,9796,-98
9780,-32764,-28049,32764,16016,-10780,5816
9790,-11533,-2978,31320,31035,-18345,13344
9800,7955,-3460,-15595,32761,-4605,12601
9810,13477,-13942,-32748,32235,9604,6299
9820,15011,-29525,-12171,-8924,-10341,1286
9830,11365,-26896,11494,-17396,-9442,44
9840,-1039,-19088,15482,-14122,5289,-5376
9850,-23393,-15010,-24290,-1627,32519,-10832
9860,-21050,-18597,-32748,-1422,27616,-8324
9870,-22250,-23720,-28398,-8650,12900,-7643
9880,-22204,-26955,3793,-24008,12163,-9938
9890,-32713,-31058,20722,-28633,28354,-15006
9900,-32764,-32764,29756,-25011,32753,-17555
9910,-32764,-32764,-9958,-9643,24868,-15181
9920,-27255,-20133,-5760,-20707,-1642,-7948
9930,-21891,-22003,5920,-29199,-3741,-6208
9940,-18529,-22248,12893,-28765,-3684,-5352
9950,-13979,-18642,11567,-24677,-6649,-4648
9960,-10940,-17385,11595,-24322,-6547,-2625
9970,-6888,-14878,9596,-22803,-6354,-1174
9980,534,-10585,14128,-21902,-4176,-1365
9990,-330,-7320,10022,-16974,534,-4456
10000,-3219,-4552,5908,-16374,319,-5702
10010,-3350,-1991,5279,-17026,1637,-5285
10020,441,2330,5715,-13285,10203,-2889
10030,-107,3916,7163,-8024,13637,-2021
10040,-4132,3709,9789,-3010,15728,-1174
10050,-10632,2645,15346,7522,16202,4487
10060,-5268,2188,6855,12317,13350,8496
10070,-3167,415,4294,12810,7992,8555
10080,2889,-5018,6958,13932,-5886,5981
10090,6635,-6334,5133,13652,-14562,4002
10100,4052,-7822,1694,10676,-24124,1188
10110,-9771,-13902,-5414,8552,-32766,-826
10120,-17593,-22730,-633,10168,-32766,-1559
10130,-21800,-32754,8027,13230,-31691,-1013
10140,-17709,-32764,14537,17756,-20927,2913
10150,-17095,-32764,14011,28738,-6071,6535
10160,-18142,-32764,11850,31833,272,4708
10170,-18447,-32764,6848,32761,7396,2581
10180,-22719,-32764,-2643,32766,4592,-168
10190,-23496,-32764,-239,32030,691,-1295
10200,-29308,-32764,1767,26163,-2179,-2373
10210,-31657,-27938,3864,18940,-8222,-611
10220,-27715,-26844,9740,11284,-14309,3870
10230,-23612,-24824,5703,11488,-16080,4829
10240,-21913,-21849,2376,9707,-13477,6881
10250,-16242,-14426,-3787,3625,-18612,12717
10260,-10698,-10997,-2232,873,-24042,14358
10270,-3898,-6677,-3255,29,-24911,14601
10280,6723,-957,-4366,-1035,-23071,8066
10290,13009,1602,-4232,-1325,-19787,4861
10300,16919,5128,-6510,-1127,-14724,2664
10310,22056,13565,-10828,-2671,-2483,-226
10320,19435,15963,-16379,-4900,4793,-2359
10330,16561,14772,-19183,-8132,13492,-4270
10340,10048,7400,-12295,-12751,25337,-7638
10350,3352,3215,-6699,-14141,25222,-8818
10360,-941,-1790,-1040,-15021,24210,-8512
10370,-4840,-6088,3652,-14926,24519,-7551
10380,-14165,-16499,22328,-13523,21592,-5311
10390,-29980,-24547,32764,-9800,16374,-4209
10400,-32764,-27862,32764,1785,1132,145
10410,-31730,-14742,30321,14460,-16122,6881
10420,-12338,3597,28935,24173,-10296,10978
10430,3492,3408,-7867,31966,-6975,10453
10440,11086,-4848,-32748,31041,7307,5760
10450,7629,-32764,-21759,-1180,2214,-1165
10460,-4483,-32764,3498,-13249,-6607,-5681
10470,-10617,-32472,11201,-16432,2718,-5369
10480,-13515,-16113,-8907,-15094,12526,-525
10490,-15794,-21552,4709,-21767,20922,-5156
10500,-29680,-32764,10845,-19076,32080,-16215
10510,-32459,-32764,-3771,-9899,23130,-15701
10520,-32764,-27552,-8287,-8843,14461,-14644
10530,-32764,-18161,9863,-15017,12014,-13098
10540,-27464,-18870,11060,-23532,-467,-7277
10550,-22157,-19643,7003,-22355,-3774,-5685
10560,-17865,-18343,7010,-21969,-3722,-5002
10570,-6542,-16698,11993,-21603,-7958,-2929
10580,-4481,-14574,13469,-19702,-9323,-3565
10590,-5395,-13335,11665,-17746,-10553,-4790
10600,-335,-7462,8978,-18281,-3603,-4067
10610,-2105,-5308,8227,-16856,-359,-5980
10620,-890,-2130,8247,-14814,2250,-5371
10630,4,1173,7117,-12366,5439,-4458
10640,-3920,3958,8605,-4639,13918,-2756
10650,-7177,2756,8554,-355,16904,-1625
10660,-7364,3208,7984,3014,16777,705
10670,-3335,2097,8804,6883,6468,5358
10680,-929,-2562,5688,9678,386,5076
10690,-308,-3442,3354,11463,-1973,3845
10700,1917,-3482,2169,12984,-9755,1498
10710,820,-4657,2942,12389,-15713,166
10720,-1272,-7196,3237,11369,-23386,-530
10730,-11006,-16798,978,12231,-32766,-1763
10740,-17845,-26333,4030,14305,-32741,-2153
10750,-19383,-32764,9355,16867,-28356,-97
10760,-14456,-32764,13375,25988,-5624,6783
10770,-18090,-32764,12713,30290,0,6063
10780,-20983,-32764,8827,32559,7059,4936
10790,-24178,-32764,-463,32765,10570,4334
10800,-21348,-32764,2034,30393,3227,4221
10810,-23702,-30600,7074,24026,476,1815
10820,-29016,-28575,7351,19112,-4862,1261
10830,-30274,-26404,5353,10758,-14234,6564
10840,-23805,-26291,4814,8101,-17809,7503
10850,-17219,-24169,5627,5855,-20537,7446
10860,-16666,-19149,-312,488,-26409,8386
10870,-13783,-15972,1676,-3051,-29567,10631
10880,-7913,-11680,2816,-3191,-27660,11137
10890,-3580,-6698,678,-1857,-23944,9182
10900,6832,-1826,446,-301,-19081,3900
10910,13155,1742,-2096,308,-13823,3023
10920,22957,9330,-4680,-356,-1754,406
10930,21623,13937,-7873,-2374,4384,-1784
10940,17147,15206,-10664,-5243,9894,-4328
10950,12284,10984,-12136,-10708,20064,-7593
10960,7729,7593,-10460,-12617,23708,-9093
10970,398,3215,-6399,-13886,24764,-9519
10980,-5957,-1987,-1412,-14178,23987,-8088
10990,-12274,-11702,10125,-12191,20564,-4061
11000,-17365,-16953,21073,-10252,18352,-3393
11010,-29775,-23644,32629,-4943,13389,-2447
11020,-28611,-14785,31065,17361,-17740,6706
11030,-9336,-2010,22581,27908,-6443,11452
11040,2246,-11869,-28103,30482,11708,10280
11050,3940,-28338,-32748,27355,11349,4139
11060,9090,-26204,-9676,9627,-3988,-132
11070,11972,-17487,1810,-8819,-10821,404
11080,8587,-10617,12010,-11817,-7439,-3220
11090,-7606,-11204,4852,-10329,14374,-9031
11100,-13364,-23766,-32609,1354,32471,-9546
11110,-16242,-30198,-19682,-6140,26777,-11836
11120,-32764,-32764,24330,-20100,22888,-18201
11130,-32764,-32652,28755,-23145,32632,-18721
11140,-32764,-30183,-4936,-7184,22499,-14719
11150,-32764,-19648,-9487,-19236,7389,-13716
11160,-32764,-19377,12736,-29496,11586,-12162
11170,-32622,-21373,15441,-28212,6588,-9237
11180,-28961,-20489,3218,-25125,63,-6789
11190,-16879,-19880,7755,-27436,-5596,-5181
11200,-11312,-20345,11833,-28350,-9670,-4094
11210,-6172,-20283,12798,-27239,-14485,-2352
11220,411,-16386,9810,-20686,-10505,-1285
11230,262,-12937,7134,-17754,-6218,-3513
11240,1383,-8881,6543,-15391,-629,-3785
11250,3930,-3491,6455,-13025,7549,-2514
11260,4860,7175,9190,-7888,14907,-2561
11270,-1105,6512,12480,-5040,13447,-3316
11280,-7626,2385,12404,-1174,14189,-3242
11290,-8279,659,11177,3027,13798,-1164
11300,-3025,981,6086,8501,11203,3973
11310,-2614,-804,3537,9153,9909,4218
11320,-891,-1251,1187,10393,5914,4203
11330,44,-2188,1140,13426,-6855,2798
11340,-8639,-11710,-279,8043,-32765,441
11350,-22127,-32698,5597,14037,-31773,-1042
11360,-21483,-32764,9661,19120,-20681,2495
11370,-20655,-32764,11325,25301,-10194,5757
11380,-28833,-32764,10321,31212,-1568,3707
11390,-28072,-32764,4331,32689,1865,3557
11400,-24616,-32764,-1281,32766,-1375,3950
11410,-22065,-32764,-3123,32635,-6303,3015
11420,-23188,-30561,2521,19765,-8403,-21
11430,-24969,-28392,9541,13895,-9740,2462
11440,-25775,-28286,6087,12149,-11301,5112
11450,-26555,-28596,4661,10391,-16683,5468
11460,-19321,-22601,2466,6366,-17692,8051
11470,-18657,-18462,-966,4360,-18318,9549
11480,-14078,-14261,-3709,2662,-21465,12009
11490,-3751,-7258,-2735,163,-23755,13937
11500,3724,-3306,-3981,327,-20127,12629
11510,10641,719,-5436,35,-16836,9505
11520,17472,6465,-3289,-302,-16197,5782
11530,23383,13719,-5955,615,-6901,1690
11540,24496,17519,-12277,-1234,3076,378
11550,18975,15059,-15374,-9282,19672,-6066
11560,14025,11292,-13067,-11587,25478,-7987
11570,7489,6791,-9575,-13604,27742,-8963
11580,-4685,-2823,34,-15897,25857,-8319
11590,-9227,-7464,4327,-14984,24452,-6908
11600,-13210,-12863,11856,-13679,20727,-6031
11610,-32764,-30673,32764,-11767,15883,-4745
11620,-32764,-28565,32764,7987,-7505,1404
11630,-24679,-15806,28928,15311,-18849,7616
11640,-13785,-4757,18474,18751,-16336,10040
11650,792,-5635,-3116,31813,-8524,9198
11660,4169,-21193,-32748,32023,4810,5367
11670,2286,-32764,-32748,20382,821,2442
11680,-21,-31027,-4060,-6100,-8408,-2400
11690,-354,-15687,3809,-5791,-5094,-3741
11700,-6043,-11448,-2450,-4818,3532,-6827
11710,-11723,-13099,-20311,-2128,15291,-8197
11720,-12673,-20815,-15726,-6155,21903,-6313
11730,-14554,-27155,-3823,-12094,21188,-9071
11740,-22671,-31936,4793,-20558,28847,-14506
11750,-32764,-32764,10455,-16586,29219,-16134
11760,-32764,-30356,-1331,-7054,17680,-13692
11770,-32764,-17260,-2632,-9014,17880,-13469
11780,-30745,-18035,6451,-25596,10304,-8082
11790,-29523,-20584,8490,-27523,4296,-6068
11800,-27578,-21492,8433,-26643,-148,-6134
11810,-17852,-19146,10660,-25726,-6039,-4689
11820,-12371,-19309,13624,-25568,-9881,-3761
11830,-7360,-15828,11000,-23931,-12282,-2985
11840,-80,-11797,5546,-19621,-9041,-3526
11850,-417,-9127,4536,-17356,-3854,-4176
11860,1134,-5155,5913,-16348,-1646,-4504
11870,4720,-869,10695,-15849,2823,-3594
11880,4004,5949,11282,-6617,12650,-2750
11890,-2124,4443,10859,-1295,13778,-3131
11900,-8218,1109,9618,2262,15118,-2564
11910,-8768,2129,8245,7886,14242,3060
11920,-7798,2065,3283,10309,12931,5202
11930,-5454,1738,401,11608,10184,5958
11940,-4043,41,2834,12810,4380,6083
11950,3579,-5794,7431,12255,-14410,4371
11960,3353,-6970,5286,8031,-25494,2313
11970,134,-8655,714,5307,-32294,880
11980,-12073,-18929,1438,7537,-32766,-1914
11990,-17501,-30195,5902,12737,-32303,-2288
12000,-17153,-32764,10671,25744,-6127,3261
12010,-20846,-32764,12740,31059,-689,5375
12020,-25663,-32764,11411,32719,3791,4785
12030,-27209,-32764,6256,32766,8677,3677
12040,-23113,-32764,-5862,32766,-2402,2418
12050,-20071,-32730,-2726,31041,-7456,460
12060,-26731,-31180,-379,22943,-7956,-1882
12070,-27812,-26949,11449,9979,-10339,4968
12080,-26083,-27808,5753,9923,-14645,6048
12090,-21514,-27040,5810,8254,-20668,5385
12100,-18031,-23837,4184,6505,-19163,5170
12110,-16512,-16995,-1810,831,-19831,9110
12120,-11481,-14024,1066,-1060,-23503,11646
12130,-5957,-9280,-2311,130,-21467,12700
12140,8592,-1746,-2246,364,-18651,8897
12150,13537,1488,-2931,1229,-15488,5044
12160,16489,6658,-4248,1977,-12914,2037
12170,24031,15086,-7847,-684,288,706
12180,23017,17779,-13262,-3236,8411,-2078
12190,1136,4399,-6381,-13270,25457,-8738
12200,-9023,-5802,1109,-13285,24215,-6781
12210,-12146,-10838,7531,-12545,22142,-5569
12220,-16352,-15852,18384,-11520,19118,-4934
12230,-32764,-26524,32764,2020,644,-688
12240,-28523,-15506,30999,13330,-16506,6144
12250,-15372,-4038,20505,17643,-15427,9831
12260,-10867,925,26224,23011,-9865,10563
12270,8476,-12395,-32534,30972,7243,7938
12280,9536,-26267,-32748,22472,4359,3411
12290,7405,-32764,-21601,1356,-3465,581
12300,-2348,-22936,10697,-10334,-3449,-4117
12310,-12988,-16925,5370,-4066,9789,-9237
12320,-19557,-17447,-13495,1918,15843,-11035
12330,-15185,-17321,-21062,-4868,11395,-2593
12340,-15853,-21463,-4441,-14571,11204,-3297
12350,-24096,-25765,7897,-24470,25143,-9147
12360,-32764,-32758,7769,-18244,22219,-16060
12370,-32764,-31797,-5797,-10780,7074,-14585
12380,-32684,-23859,-3683,-14820,9063,-12810
12390,-28927,-20130,-472,-20786,13138,-10171
12400,-20485,-22026,8994,-29003,-3348,-5302
12410,-19837,-22687,8586,-28610,-7510,-5369
12420,-13707,-21943,11737,-26505,-7935,-4441
12430,-12033,-18895,10362,-25363,-8701,-3342
12440,-7325,-18304,11481,-24471,-7203,-1815
12450,-3474,-12545,7169,-22139,-3808,-1898
12460,-3478,-9453,5296,-18139,-1771,-5351
12470,-1440,-5601,5832,-16631,1886,-4611
12480,1844,-664,8823,-15049,6471,-3466
12490,2772,5515,12290,-6080,15826,-2982
12500,-2709,3941,11402,-761,16459,-3363
12510,-7408,1512,8560,3038,17293,-2150
12520,-7180,2193,6963,5658,15772,638
12530,-7474,3056,4128,10515,10175,5063
12540,-4935,1588,3168,11457,5712,5566
12550,-4639,-1732,6526,12085,939,4857
12560,1991,-4211,6453,12492,-11582,3858
12570,1837,-6342,89,10533,-20488,2250
12580,-2907,-9965,-6629,8487,-29982,171
12590,-16757,-27359,-3396,8699,-32766,-1368
12600,-17831,-32764,6478,9614,-30998,1269
12610,-14395,-32764,14866,12335,-23012,4793
12620,-16063,-32764,16908,23600,-9835,3867
12630,-14811,-32764,13541,30206,1031,2682
12640,-14204,-32764,7562,32745,11528,720
12650,-21084,-32764,-5303,32766,15313,-1401
12660,-21246,-32764,-5336,32605,5502,-798
12670,-24850,-27830,-2814,27160,-4943,-2170
12680,-32764,-21226,7959,16803,-9660,-1575
12690,-31491,-22621,6669,10389,-7453,4975
12700,-23110,-20953,3344,10500,-7606,8585
12710,-18243,-18119,-1996,8237,-10430,10192
12720,-15052,-13867,-4560,1371,-22341,12870
12730,-10762,-11937,-2559,173,-26318,13535
12740,-5071,-8552,-3316,73,-26666,12262
12750,4945,-2460,-3906,-1518,-23784,6470
12760,11023,-21,-3253,-1283,-20673,3768
12770,15807,3984,-4540,213,-16221,2387
12780,21589,8006,-5878,428,-9613,1326
12790,20822,15636,-13965,-3227,4263,-2355
12800,17115,13647,-15818,-6187,11479,-4395
12810,13021,8790,-12183,-8314,17425,-5751
12820,1663,1302,-2389,-9707,21238,-5906
12830,-3089,-2901,2721,-9951,21534,-4885
12840,-11654,-10940,21397,-8484,20951,-2422
12850,-21331,-15452,32764,-5533,17031,-1139
12860,-32764,-20109,32764,1201,6600,1120
12870,-32764,-12377,32764,15541,-9032,5214
12880,-439,-2194,6380,32216,-6592,12709
12890,9814,-14208,-32748,27822,9862,8979
12900,8600,-24994,-32748,18179,5174,2808
12910,-2603,-32764,5377,-13103,-3056,-3641
12920,-11157,-24122,1208,-7348,986,-6370
12930,-16946,-16757,2222,-3106,5079,-8248
12940,-17208,-12378,-22897,-2207,11229,-7125
12950,-9869,-16995,-22115,-5998,15292,-2813
12960,-12847,-22545,-7803,-14033,14700,-5739
12970,-21441,-27780,12463,-20355,21714,-10147
12980,-32243,-28937,6467,-14096,31014,-12133
12990,-29923,-27885,-13424,-7582,18040,-11801
13000,-32764,-25696,-13728,-14178,10714,-13873
13010,-32764,-19962,13294,-25816,13133,-14094
13020,-32764,-20988,10835,-24543,2834,-12626
13030,-29078,-20501,3078,-24917,-4110,-10492
13040,-770,-18612,11028,-21855,-10018,-2428
13050,1585,-12335,8590,-18401,-6132,-3645
13060,1463,-7277,8609,-11893,4025,-5228
13070,2557,-140,8335,-9605,10805,-4043
13080,3294,6415,6768,-7457,15788,-3388
13090,-4759,6536,9916,-3213,14775,-3347
13100,-9385,4349,10024,439,15444,-1708
13110,-9133,4282,9528,4795,14972,1588
13120,-6935,4000,8647,8174,13730,4652
13130,-2374,-4729,8679,12070,5771,5857
13140,1008,-7076,7335,14008,848,5439
13150,1870,-6256,8051,13977,-4653,3887
13160,-401,-5904,3841,12253,-21917,1605
13170,-2406,-5762,-71,11355,-30097,786
13180,-7549,-7590,-2705,11687,-32750,-376
13190,-22090,-30528,5815,13340,-32766,-1979
13200,-24658,-32764,13225,19213,-22230,214
13210,-21150,-32764,14257,23691,-8973,4536
13220,-22165,-32764,12104,28282,-7349,6097
13230,-27417,-32764,3489,31856,-2316,2465
13240,-27971,-32764,-3273,32743,-4124,3192
13250,-24345,-32764,-1608,31102,-10718,5124
13260,-26304,-31959,6514,18334,-9916,2023
13270,-25207,-28839,8492,14185,-12428,3597
13280,-22836,-28263,8964,11529,-15881,5745
13290,-22887,-25901,4319,9085,-20556,5534
13300,-20969,-21732,-2273,6524,-19599,7822
13310,-16460,-18872,1680,2025,-23830,10117
13320,-11420,-13461,-1374,151,-22563,12689
13330,-6173,-8928,-3624,-789,-21268,13246
13340,1880,-4780,-3023,-2040,-21780,11993
13350,9768,-1451,-1158,-1983,-21750,8475
13360,19368,6479,-2487,426,-13207,2997
13370,25125,11420,-4193,-211,-4627,2345
13380,25020,15668,-8506,-1059,4643,63
13390,19986,16024,-15861,-2975,12141,-3099
13400,10333,11900,-13140,-8889,22898,-6117
13410,6151,7573,-10151,-10815,24962,-6589
13420,1972,2699,-6311,-12030,25354,-6723
13430,-4468,-4894,2310,-12791,21663,-5770
13440,-6339,-8083,7711,-12251,18277,-5058
13450,-9312,-10609,15174,-11009,14885,-4614
13460,-25071,-17933,32758,-5155,5414,-2295
13470,-28482,-13434,32764,2827,-2718,265
13480,-12816,-4651,27406,19858,-5857,4400
13490,-4795,-10017,12059,27260,-2431,5030
13500,1075,-22420,-26280,27505,8738,3376
13510,-3634,-32764,-16177,19540,524,-1937
13520,-6534,-30942,-9344,-2653,-1638,-3708
13530,-6276,-16291,-2815,-1513,-3224,-4559
13540,-10035,-12505,-1952,-5344,2375,-6515
13550,-13684,-11219,-30656,-5363,21009,-3449
13560,-14605,-21240,-24639,-12479,21644,-1787
13570,-15380,-28219,-11632,-17504,16349,-4496
13580,-32301,-32764,24863,-24482,23960,-16983
13590,-32764,-32764,26468,-25172,32111,-17567
13600,-31084,-31343,1790,-8795,14349,-14250
13610,-28756,-24241,-12596,-5672,-151,-13043
13620,-25599,-22702,13801,-28364,13509,-7519
13630,-23977,-21927,17215,-27638,5741,-6547
13640,-25535,-21141,10679,-23886,-98,-7593
13650,-20219,-17319,10671,-22797,332,-5523
13660,-15772,-16107,13029,-22359,-3293,-4135
13670,-8502,-13822,10847,-19106,-6001,-3431
13680,-6037,-10891,7607,-17584,-5676,-3000
13690,-2583,-8591,6108,-15587,-2724,-2150
13700,3420,-1990,10225,-12409,7005,-1904
13710,5260,2896,10207,-9810,6645,-1385
13720,5862,7033,12947,-6322,6409,-906
13730,-1886,5210,13128,-1124,9053,-1102
13740,-9692,2244,13537,10200,14264,3004
13750,-7148,1470,10772,14829,15430,7059
13760,-4348,-815,4140,17362,15370,9051
13770,-285,-5835,5742,17034,532,7232
13780,3093,-7476,6690,15701,-10405,5604
13790,-3881,-10482,-4339,10322,-30827,2427
13800,-10943,-15959,-7026,11171,-32766,1260
13810,-19015,-25081,-1154,13404,-32766,38
13820,-21738,-32764,18372,17635,-21888,5077
13830,-19334,-32764,15438,22233,-16287,7618
13840,-18579,-32764,11518,26054,-13006,5955
13850,-19232,-32764,7928,28976,-7678,2975
13860,-21811,-32764,-1114,32763,-8468,290
13870,-19607,-32764,-511,31606,-10874,-199
13880,-23851,-32764,-636,26651,-8010,-1664
13890,-22725,-24074,9918,8464,-20942,6137
13900,-21329,-18767,3252,6113,-20451,8932
13910,-13127,-9915,1572,-714,-24700,13085
13920,-8805,-6185,-264,-1088,-24732,11888
13930,-4966,-4303,-2571,-840,-23879,9040
13940,438,-3374,-3871,-1087,-23388,7039
13950,16116,965,-3287,-516,-18426,4224
13960,23023,4595,-5997,-233,-10953,2086
13970,24595,9467,-8834,-1288,-3377,96
13980,16971,16212,-15105,-5071,10012,-4426
13990,13623,13051,-16108,-7571,15918,-5309
14000,10965,9110,-14466,-10253,21249,-5850
14010,6462,5987,-11410,-12415,24426,-6935
14020,-3759,-1587,-1379,-14194,24439,-5679
14030,-6686,-6453,4817,-14174,23292,-4026
14040,-9149,-11119,12481,-13786,21442,-3022
14050,-31491,-25103,32764,-6828,15691,-1460
14060,-32764,-26293,32764,6371,315,2079
14070,-29675,-11083,29586,17735,-13204,7960
14080,-718,2975,8855,31755,-8779,12557
14090,14790,-1629,-32748,32405,7661,9008
14100,13142,-15165,-32748,23195,11241,2929
14110,3486,-32764,1035,-20392,-12624,-7177
14120,-14513,-32764,23793,-29104,492,-9832
14130,-26070,-26703,17964,-9321,22093,-7292
14140,-19347,-13143,-17272,1954,27937,-4822
14150,-12502,-9738,-28469,2926,4870,-4694
14160,-8400,-12726,-29898,-3762,3860,-3118
14170,-16307,-30578,-6156,-23924,26689,-10458
14180,-24030,-32764,-812,-24006,25366,-17438
14190,-32764,-32764,16804,-24957,29612,-21683
14200,-32764,-31548,25371,-21250,31212,-18662
14210,-30745,-16385,-6897,-14965,2622,-10361
14220,-24327,-19272,219,-24519,-812,-8067
14230,-20095,-20236,8092,-27081,-2630,-5966
14240,-15931,-18963,12883,-25162,-6610,-4560
14250,-7386,-17366,15756,-21383,-9166,-2455
14260,-4909,-14844,14295,-19169,-7394,-2707
14270,-1640,-10534,10947,-16719,-3268,-2207
14280,-2328,-4993,1108,-11195,3534,-4934
14290,-3593,-1222,-484,-11283,2934,-6034
14300,-1592,2426,519,-12106,4784,-4483
14310,-1637,6154,12504,-8225,11662,-1883
14320,-7287,3660,18317,-3829,15289,-824
14330,-7716,1802,17695,2435,15918,1858
14340,-1420,-511,2466,9345,8797,4779
14350,-1461,-2767,1483,8915,4180,3837
14360,-717,-3922,3655,9924,-557,3591
14370,3209,-4971,6318,14201,-8436,3334
14380,2315,-6008,7886,13833,-14681,1583
14390,-905,-7007,4982,12292,-21708,320
14400,-5839,-9148,-273,11024,-29592,-42
14410,-21625,-27348,903,14032,-32766,-2129
14420,-26181,-32764,6735,17491,-29514,-1537
14430,-22097,-32764,8477,21747,-14692,2817
14440,-24871,-32764,12565,29888,-6790,6281
14450,-24368,-32764,10548,31611,270,5437
14460,-21166,-32764,3740,32745,4608,5053
14470,-15830,-32764,-1827,32766,2703,5425
14480,-23457,-30504,-996,27148,-3283,-674
14490,-29702,-25699,3467,19273,-5946,-542
14500,-29609,-23788,11142,13717,-5903,3616
14510,-25886,-25915,2187,10737,-13903,5080
14520,-20678,-23220,-144,6834,-15498,5613
14530,-16567,-17553,-1339,778,-24303,7972
14540,-12984,-14468,-2587,-402,-24682,10788
14550,-6038,-9477,-1748,-533,-24158,12303
14560,7966,-1668,-3842,-147,-19038,9046
14570,13365,1938,-2070,-334,-17886,6807
14580,18010,7759,-2898,197,-14917,4521
14590,18388,11418,-4425,616,-10378,1740
14600,22579,17898,-16149,-3552,10357,591
14610,20981,15756,-15682,-7945,19446,-2850
14620,16388,12361,-12931,-10704,25191,-6245
14630,3483,4700,-6346,-13160,26445,-8847
14640,-2113,-682,-2103,-13509,25368,-8325
14650,-6222,-6204,605,-13008,24958,-7051
14660,-15303,-15040,14571,-12081,22232,-5457
14670,-26509,-20545,29444,-9893,17544,-4444
14680,-32764,-26966,32764,-1909,4749,-605
14690,-30331,-18394,27847,9878,-12913,6271
14700,-10862,1106,26467,15938,-10868,10576
14710,-858,592,11319,24934,-7524,10158
14720,7737,-7465,-29527,29322,5563,7190
14730,7638,-32764,-25238,1749,1055,563
14740,-17260,-16475,-5406,5147,11791,-8072
14750,-12357,-12357,-28976,-759,8500,-3942
14760,-12261,-17267,-16814,-11882,10961,-2571
14770,-15721,-24564,-2566,-19606,17908,-5536
14780,-32764,-32764,18101,-21121,31960,-16780
14790,-32764,-29818,797,-11765,19380,-14366
14800,-30091,-21023,-8263,-9222,8501,-12226
14810,-26604,-15953,-4277,-16650,12030,-11389
14820,-21936,-23239,10221,-26059,387,-9040
14830,-20625,-22262,6418,-24355,-5531,-8259
14840,-20102,-20699,8153,-23636,-6727,-8199
14850,-12837,-17656,16556,-21700,-7138,-7058
14860,-11739,-16236,13791,-18977,-9591,-6561
14870,-9913,-12738,9191,-17440,-10987,-5563
14880,-4302,-6646,2934,-16672,-5284,-3188
14890,-910,-4691,6029,-16849,-1827,-3363
14900,2303,-1875,7966,-15579,1017,-3010
14910,3195,3115,8406,-12542,3156,-3108
14920,-4747,6892,11478,-4747,6035,-3198
14930,-8169,3562,8715,-132,8359,-1705
14940,-7012,1557,5609,3336,8733,446
14950,-3681,696,5587,8670,6086,3642
14960,-683,-2700,6679,12030,3761,4446
14970,262,-5491,5444,13274,920,3722
14980,618,-5254,3887,9882,-11250,2557
14990,-1504,-5898,3324,8724,-19632,1669
15000,-3558,-7762,1994,9231,-26668,1117
15010,-12708,-22599,4660,13615,-32640,-849
15020,-15921,-32764,7780,17580,-28211,-666
15030,-16902,-32764,9303,21703,-16106,2141
15040,-22075,-32764,12773,28064,-3339,5221
15050,-24354,-32764,9687,31009,1466,4439
15060,-23331,-32764,3810,32685,4096,3814
15070,-19585,-32764,-5386,32312,-2342,1807
15080,-21388,-31250,-5919,25795,-5821,30
15090,-24492,-26382,1796,14946,-8051,214
15100,-25209,-24097,11612,8545,-7823,2207
15110,-22112,-25006,8635,9050,-19329,2689
15120,-19569,-22774,3627,7483,-18991,3122
15130,-16694,-20292,515,5079,-18068,4509
15140,-12541,-14974,-1588,3145,-19970,7414
15150,-8264,-10920,-1368,1753,-17782,9488
15160,-2482,-7175,-707,383,-17680,9642
15170,11040,118,-1812,1534,-13647,5183
15180,14941,5098,-2503,2137,-11148,1916
15190,15724,9856,-4156,1809,-7541,-21
15200,21110,16764,-10067,-2278,7721,-1149
15210,16047,15686,-12397,-5110,14073,-4609
15220,10458,12750,-10896,-7816,18566,-6490
15230,4686,8800,-7429,-9713,21323,-6419
15240,-5862,100,259,-11218,21458,-5296
15250,-9127,-4716,6433,-11074,20101,-4551
15260,-11755,-8476,14242,-9739,18614,-3607
15270,-27105,-17262,32764,-1839,10195,-1210
15280,-30212,-15366,32764,7243,-199,2793
15290,-17540,-7484,20095,16222,-6293,7786
15300,-10803,-2963,23200,22031,-3142,9962
15310,6525,-16132,-32748,21291,11275,7540
15320,7210,-27699,-32542,11854,-2485,1896
15330,3452,-32764,-8667,-2647,-4579,-1799
15340,-6543,-26125,8003,-8047,3343,-4024
15350,-12472,-20217,428,-1656,11578,-7496
15360,-16313,-15710,-16674,914,19974,-9291
15370,-13751,-18053,-26440,-6205,17817,-6248
15380,-14725,-24253,-10735,-14555,14331,-7518
15390,-32764,-32764,26546,-18299,27608,-16845
15400,-32764,-32764,23666,-20374,32006,-16757
15410,-32764,-24954,-8313,-6967,15584,-12802
15420,-31772,-17051,-17497,-10827,-420,-12383
15430,-27032,-22108,11776,-28451,4328,-10085
15440,-24856,-21903,9182,-25834,-552,-7904
15450,-20254,-21698,7616,-25080,-7084,-6598
15460,-9465,-18840,9845,-24773,-8651,-4012
15470,-5012,-17483,13562,-23674,-11372,-3918
15480,-3121,-16152,13932,-20553,-11969,-4285
15490,572,-10397,5938,-14895,-3626,-3726
15500,590,-7988,5085,-14713,-2522,-5039
15510,220,-4842,4732,-14044,-763,-5237
15520,1764,-276,5098,-12822,2797,-3985
15530,779,5504,9897,-7638,8048,-3268
15540,-6285,3690,10897,-2373,11404,-3326
15550,-10226,2527,9105,2990,16113,-1866
15560,-7805,4777,6344,10657,16759,5820
15570,-5427,3443,8293,12456,12532,8230
15580,-2802,-1247,11237,14141,7037,8155
15590,-11667,-11588,-10793,11077,-32738,-1333
15600,-18696,-21359,-6460,10841,-32766,-2434
15610,-21413,-32764,14271,11781,-29480,1474
15620,-16727,-32764,17941,16709,-19429,5915
15630,-17215,-32764,15385,23303,-13078,5969
15640,-17730,-32764,7224,27359,-4379,3983
15650,-17202,-32764,1504,32764,7630,573
15660,-15298,-32764,-2495,32765,3241,847
15670,-13205,-32764,-1753,31877,-1213,-116
15680,-25275,-24735,5643,18706,-4485,-2123
15690,-27348,-21582,8295,15152,-5044,439
15700,-27281,-22230,3890,14532,-6669,2282
15710,-25680,-21018,2587,11757,-8219,5017
15720,-15963,-14653,-2737,5123,-12997,11490
15730,-13764,-11754,-4390,3266,-17531,12219
15740,-9687,-8779,-2326,1538,-20902,12460
15750,4770,-2808,-3386,-393,-20501,10210
15760,10166,87,-3622,-1069,-19026,6197
15770,15035,3197,-2924,-857,-16912,2720
15780,19581,13992,-4437,-1679,-9442,677
15790,19862,17705,-11178,-3438,-989,-113
15800,16866,17217,-17946,-6722,8485,-2604
15810,11979,8674,-10809,-13035,23112,-6730
15820,5543,4776,-5384,-13636,24910,-7405
15830,-5697,-3402,3475,-12626,23681,-5184
15840,-10366,-7832,9071,-11920,23337,-3648
15850,-16834,-13197,20868,-10799,22087,-2600
15860,-29762,-21429,32764,-6779,17909,-1184
15870,-29637,-15690,31695,18315,-15676,10623
15880,-17790,-5397,29283,25611,-15565,13779
15890,1310,-1525,996,28965,-6918,13994
15900,12899,-22712,-32748,19894,4664,3124
15910,12739,-32764,-16525,1098,2494,-354
15920,69,-32764,14743,-17063,-789,-4861
15930,-9842,-29248,10577,-13498,1456,-6729
15940,-20413,-16282,-21433,2688,13953,-9872
15950,-17627,-15726,-28295,-1331,15770,-6777
15960,-15939,-17542,-23969,-8603,13923,-3149
15970,-15126,-21359,6784,-16432,12997,-3422
15980,-32764,-32692,31311,-22158,27748,-14466
15990,-32764,-32764,14268,-15951,31874,-15218
16000,-32630,-28222,-11488,-6388,15435,-13285
16010,-24053,-19762,-918,-23563,1786,-11381
16020,-23802,-22733,17545,-27964,5069,-10702
16030,-22818,-21514,5983,-20777,-1732,-8817
16040,-19857,-19501,5849,-20565,-3768,-7468
16050,-15390,-18312,10738,-20876,-5804,-6196
16060,-11099,-16099,13938,-20156,-7587,-5696
16070,-7640,-10786,10050,-17997,-8376,-4760
16080,-5547,-8918,6470,-16864,-6373,-3797
16090,-4835,-7234,4211,-15909,-5023,-4949
16100,749,-445,8361,-15359,2493,-3936
16110,1345,2189,7664,-11806,6942,-3501
16120,-770,4199,7630,-6898,8909,-3198
16130,-5041,3459,9654,-2188,10224,-2361
16140,-9596,3550,8809,7073,16947,2707
16150,-7678,5504,8129,10710,16187,6390
16160,-3699,3773,9181,13168,11317,8580
16170,529,-6060,8052,14959,107,7288
16180,2363,-7520,7848,13873,-8739,5436
16190,2587,-8644,5233,12277,-19452,3429
16200,-6134,-11407,-6110,9759,-32747,-352
16210,-13157,-19060,-5860,9524,-32767,-2100
16220,-18110,-31054,3188,9908,-32766,-3365
16230,-16639,-32764,16002,18361,-16431,1758
16240,-16814,-32764,15230,25858,-9335,4775
16250,-19941,-32764,12576,29353,-5325,4251
16260,-23886,-32764,-1176,32738,-593,1503
16270,-22343,-32764,-7133,32503,-6991,2043
16280,-20779,-31800,-1959,27995,-8486,1127
16290,-25271,-25559,9299,16464,-1285,530
16300,-22058,-23937,10968,14027,-4292,3461
16310,-24283,-23367,4364,13076,-11193,3717
16320,-23034,-23697,6180,9732,-14447,4294
16330,-17561,-17276,-1759,3276,-11526,8909
16340,-16379,-15270,-300,-330,-17155,10387
16350,-11849,-13660,-33,-1301,-20337,12113
16360,2081,-5185,-1563,-791,-18345,11394
16370,7983,-826,-1513,-1962,-15441,9038
16380,12946,2129,-853,-2323,-12834,5217
16390,18015,5762,-873,-1129,-4448,-663
16400,21949,10362,-3626,-1716,4103,24
16410,20640,12911,-6929,-3158,10944,-1983
16420,10992,11516,-10498,-6759,20930,-6928
16430,7019,9040,-7839,-8650,22776,-7523
16440,-14017,-13454,15279,-8864,14826,-4089
16450,-22370,-16447,24887,-6287,9989,-1989
16460,-31628,-19375,32764,69,744,1617
16470,-19714,-2269,31611,19566,-16664,10768
16480,-5629,988,14621,26559,-10188,11790
16490,7216,-6760,-28623,28479,8172,8780
16500,10262,-28245,-20386,5455,4931,365
16510,-7482,-32357,7014,-10604,3018,-4746
16520,-14280,-24386,2728,-2006,1300,-7275
16530,-20680,-21451,-3050,-1055,10002,-9796
16540,-20182,-16754,-19441,-1897,19595,-7942
16550,-15210,-18084,-18516,-9538,7366,-2930
16560,-14990,-23525,-3233,-16469,7066,-5090
16570,-24173,-28616,11284,-20298,17932,-10903
16580,-31797,-30975,9381,-14007,29130,-12605
16590,-28062,-25670,-6107,-7284,10344,-10757
16600,-26275,-20433,-10322,-11666,3859,-10586
16610,-26245,-20544,2265,-20541,8769,-10757
16620,-24753,-21705,11770,-21268,3979,-8301
16630,-23732,-19579,4912,-19391,246,-8277
16640,-21388,-18074,6655,-19958,-1828,-8220
16650,-12946,-15791,13329,-20066,-7646,-6615
16660,-10797,-14605,11604,-18924,-10651,-6865
16670,-3259,-10148,6530,-17167,-6805,-2941
16680,34,-7839,4352,-15459,-4117,-3736
16690,-393,-6144,5173,-14827,-1903,-5472
16700,1287,-1959,8887,-15031,-211,-4776
16710,1897,5280,6820,-9500,6688,-2277
16720,-2637,4568,7373,-4456,9585,-1754
16730,-7830,2519,9484,310,13689,-612
16740,-7031,3093,12751,11134,20577,6369
16750,-3834,2911,8117,14828,19424,8503
16760,-3171,-2344,9388,14377,11277,7655
16770,453,-5836,8781,13528,1715,6659
16780,851,-8168,3178,11594,-15509,3199
16790,-2388,-9461,-680,10313,-27212,1312
16800,-7402,-12759,-4382,10334,-32600,-92
16810,-19299,-32348,4446,12982,-31927,-1817
16820,-19614,-32764,11909,14769,-23463,938
16830,-16248,-32764,14413,18229,-14793,4542
16840,-20809,-32764,11439,25774,-6773,2313
16850,-21554,-32764,3791,30474,-2954,1889
16860,-24105,-32764,-2189,32700,-4096,2286
16870,-23554,-32724,5831,24406,-7334,924
16880,-25585,-29031,8504,20771,-4084,647
16890,-24187,-26171,7969,18287,-4673,3233
16900,-20376,-24915,2457,12677,-11834,3845
16910,-21583,-25330,-1296,9458,-14686,2766
16920,-17436,-23449,818,5130,-14170,5016
16930,-15507,-18946,-1317,-122,-20149,7604
16940,-12183,-17043,2399,-1528,-24128,9293
16950,-6017,-13350,1982,-239,-22471,10705
16960,-1035,-8481,-1109,1261,-17792,10622
16970,11864,1969,-481,128,-14147,7403
16980,15028,4032,-557,416,-12094,2834
16990,19269,7799,-468,938,-6338,938
17000,18463,14995,-8396,-346,7675,-1528
17010,13749,13763,-12694,-2618,13961,-4257
17020,9870,11873,-14118,-5288,18704,-5845
17030,6912,9336,-10261,-7889,21465,-6092
17040,-2683,442,-995,-9738,21106,-5262
17050,-5008,-4628,2706,-9864,20284,-4209
17060,-7842,-7903,7979,-10043,19137,-3790
17070,-22975,-14541,30583,-7744,13099,-2617
17080,-32764,-19057,32764,-386,3549,761
17090,-17968,-2744,28100,21954,-12047,10968
17100,-2133,-971,4194,26593,-3582,11950
17110,10634,-11655,-32631,25614,11783,8740
17120,13540,-26458,-10659,2671,-1668,-741
17130,4518,-32756,10743,-14194,4040,-2917
17140,-6094,-32106,7636,-11766,8646,-5600
17150,-15451,-27570,-12685,-645,16827,-9864
17160,-24435,-20694,-26839,-6882,19956,-11427
17170,-22391,-20579,-20194,-13336,9215,-8244
17180,-18491,-23098,-7998,-17397,2339,-7185
17190,-28863,-32160,8529,-21081,18117,-14943
17200,-32764,-32764,26095,-22208,30447,-16256
17210,-32764,-29562,18548,-14256,30385,-12810
17220,-32758,-21371,-2971,-7835,16893,-9167
17230,-26460,-21391,4098,-24011,3666,-6962
17240,-23912,-21048,8394,-23708,2526,-6337
17250,-21667,-19677,10268,-21596,374,-6584
17260,-14244,-15165,13700,-19438,-3853,-5581
17270,-11304,-13105,12142,-17842,-6712,-5310
17280,-9466,-12896,9859,-17465,-7788,-5017
17290,1500,-63,3955,-16256,-3157,-3948
17300,3270,4517,4355,-13986,3168,-2760
17310,-2317,6824,12334,-4690,12885,-1107
17320,-9051,3637,14817,1737,18037,413
17330,-11431,1772,15298,8896,20792,4194
17340,-2584,-1218,3465,15948,17560,10323
17350,-1869,-3930,5898,11996,7921,7942
17360,654,-6470,6381,10109,-3083,6247
17370,2898,-8165,5347,8520,-23041,2645
17380,1095,-8721,1447,8002,-30813,1345
17390,-3115,-11238,-2127,8383,-32765,-53
17400,-10773,-19058,372,9682,-32766,-2080
17410,-21722,-32764,9207,18383,-24310,-2497
17420,-20645,-32764,10173,22860,-8598,1785
17430,-21496,-32764,9888,27231,-5165,4533
17440,-26110,-32764,4208,30242,-2904,2606
17450,-23952,-32764,-345,32437,-5751,3023
17460,-19489,-32764,-2604,32259,-9884,3861
17470,-21218,-32234,5681,21578,-1344,539
17480,-26000,-27939,9887,17548,208,2133
17490,-21852,-25629,11727,15690,-3431,5663
17500,-16951,-23674,8996,15195,-8419,5310
17510,-22652,-21343,-1565,9273,-12466,2134
17520,-21807,-19832,-4792,5161,-11814,4676
17530,-13024,-13981,-453,-7,-20823,10143
17540,-6444,-10270,-669,293,-21247,11304
17550,-974,-6751,-1652,665,-20087,10543
17560,11726,695,-2538,-432,-15388,6598
17570,15553,3935,-2144,-638,-12576,2476
17580,18153,7587,-1956,-521,-8311,370
17590,20136,14961,-10122,-1822,6135,-2045
17600,15942,14904,-15868,-4374,13334,-5069
17610,13462,12995,-15006,-7959,19611,-7378
17620,10025,9803,-10807,-10318,22974,-8918
17630,-2118,-904,-2247,-11029,21634,-8232
17640,-6558,-5756,1948,-11292,20978,-6586
17650,-10281,-9679,7981,-11523,19684,-5197
17660,-28840,-20949,32764,-8386,13515,-2896
17670,-32764,-24828,32764,2436,-149,1430
17680,-30446,-11451,30181,17118,-16043,8399
17690,-774,2938,7087,31049,-6829,12658
17700,15167,-3447,-31583,30266,10010,9317
17710,15350,-11719,-32748,23259,13833,2894
17720,3416,-32764,9729,-14274,-2566,-5996
17730,-12863,-32764,19734,-23549,-180,-7407
17740,-25833,-22861,-12717,3925,20139,-7622
17750,-25011,-17571,-21446,-463,23062,-8321
17760,-21337,-14357,-25437,-4057,7239,-6007
17770,-17560,-15752,-17203,-11440,-824,-3415
17780,-22031,-28481,7241,-23135,15498,-11061
17790,-32764,-32764,21196,-24423,29336,-15797
17800,-32764,-32764,17597,-18546,30100,-13817
17810,-24132,-19290,-10138,-12492,5003,-9079
17820,-25770,-21542,407,-21729,3518,-10393
17830,-25453,-22697,10225,-25034,4062,-8721
17840,-18721,-16875,7950,-20076,-1085,-6465
17850,-12474,-16394,11388,-20503,-4114,-6003
17860,-9604,-16656,11667,-19816,-6344,-5817
17870,-6354,-11317,8877,-16993,-7112,-5609
17880,-1533,-8258,9154,-16638,-4321,-4358
17890,-1344,-6765,5792,-15588,-2104,-4517
17900,-2013,-1256,5177,-15969,-2480,-5635
17910,652,1770,6574,-14814,2520,-4006
17920,-208,3521,5951,-10749,9078,-3191
17930,-8086,1008,10306,-203,15419,-1722
17940,-10146,1662,12502,4445,19390,1120
17950,-8299,3520,11447,8998,19622,5200
17960,-3258,-2178,6362,11650,5812,7900
17970,193,-4890,8510,11797,-345,7038
17980,3805,-6658,8919,12944,-7085,5528
17990,5584,-7476,8269,12473,-15892,3284
18000,-3149,-10517,-3790,9798,-32056,-256
18010,-11021,-16361,-4285,9490,-32766,-2486
18020,-18394,-27668,1933,10731,-32766,-4383
18030,-17930,-32764,10015,19561,-13362,763
18040,-18455,-32764,11987,25607,-5070,3807
18050,-21672,-32764,12328,29298,-2442,3941
18060,-21678,-32764,340,32758,4885,2806
18070,-21718,-32764,-7269,32766,-1360,2986
18080,-18426,-30162,-3953,31215,-6648,1881
18090,-23374,-27976,630,24439,-5562,-1099
18100,-24938,-25891,11325,13672,-3523,3962
18110,-18673,-25633,9445,13356,-7248,5816
18120,-21064,-24932,1295,12432,-12019,3244
18130,-19012,-21208,-736,4462,-14158,4578
18140,-2898,-8232,-767,345,-19006,11227
18150,10935,211,-1918,-48,-14332,7854
18160,16612,3918,-1085,-532,-11444,4722
18170,17641,7935,-1890,143,-8139,923
18180,18664,10913,-2075,164,-3312,-680
18190,17452,15222,-14258,-3695,14255,-3163
18200,13599,13112,-14253,-7643,21435,-6375
18210,9964,10410,-11094,-10237,25960,-8119
18220,-1377,-758,-2133,-11287,23248,-9172
18230,-5488,-5959,680,-10652,22258,-7772
18240,-9361,-10253,4833,-10302,20799,-6279
18250,-22824,-17810,26196,-9068,15044,-3837
18260,-32764,-23032,32764,-2731,5277,-296
18270,-31251,-15247,31622,9753,-10325,6581
18280,-11404,518,28682,17294,-12454,11006
18290,2654,-2166,-10668,31586,-2740,11007
18300,11410,-9585,-32748,27719,8712,7608
18310,13859,-24357,-32627,11187,7384,3743
18320,-7442,-32764,11454,-11993,-2069,-5558
18330,-10879,-25541,4419,-7351,3900,-5688
18340,-17915,-17730,-5495,1772,8726,-7905
18350,-20250,-15716,-21240,-4066,14486,-6514
18360,-17978,-16195,-18450,-9180,8878,-3381
18370,-15554,-20111,-5288,-14389,5227,-4098
18380,-32764,-32764,19228,-20885,28082,-15585
18390,-32131,-31324,9854,-16174,23107,-14586
18400,-27088,-25322,-8024,-9996,4275,-11724
18410,-22211,-19593,622,-22783,5757,-10229
18420,-22191,-22669,12982,-26303,6482,-9737
18430,-22266,-23112,11797,-24637,2781,-8519
18440,-19322,-19289,6195,-21799,-2874,-6502
18450,-15371,-17310,11158,-21866,-4260,-6225
18460,-11659,-16143,14661,-20899,-5706,-6314
18470,-11677,-12321,8796,-17317,-10716,-7465
18480,-9078,-9273,4630,-16754,-8091,-4587
18490,-5885,-6939,3952,-17321,-5762,-3477
18500,2220,-2206,10395,-16247,2256,-2730
18510,3911,823,10969,-13137,6005,-2776
18520,771,3283,9117,-8478,6127,-2931
18530,-8043,2433,6580,-367,11447,-1198
18540,-9752,2549,6786,3303,15312,1234
18550,-9636,3607,7393,7824,15805,4538
18560,-5503,4902,5075,12091,13559,7617
18570,-778,-4388,7674,12733,3074,8260
18580,1742,-7874,9130,11283,-5755,7680
18590,2687,-10273,7052,7854,-28760,3789
18600,-710,-11811,630,8492,-32709,1692
18610,-7432,-16678,-3813,10084,-32766,-1030
18620,-16363,-28046,-1436,11896,-32766,-3614
18630,-14162,-32764,8996,17588,-14528,1503
18640,-15180,-32764,12803,22908,-7110,3854
18650,-20491,-32764,14298,26440,-5658,3473
18660,-21402,-32764,3975,32430,-965,2299
18670,-20367,-32764,-598,32766,-4688,1421
18680,-19107,-32764,-788,32466,-6633,-839
18690,-20601,-32680,1274,28408,-1805,-2533
18700,-26645,-25372,6407,15920,2066,559
18710,-27464,-24465,9553,11646,-4646,3174
18720,-25789,-23819,4914,10082,-12245,4071
18730,-20782,-21727,3865,7080,-17147,4605
18740,-18389,-14961,-2100,2998,-16019,6687
18750,-15752,-13001,-838,-339,-20769,9101
18760,-11332,-10594,30,-1931,-23902,10373
18770,3038,-3480,-2440,-1410,-18514,9463
18780,9436,112,-3226,-2307,-15505,8206
18790,18833,6840,-1064,-1699,-9349,2306
18800,21148,9302,-4037,-1226,-2831,-200
18810,21872,13147,-7891,-2231,6011,-1144
18820,20711,14704,-11681,-4548,14025,-3071
18830,11620,11326,-10052,-9665,26427,-8209
18840,5403,7968,-6892,-11248,28382,-8938
18850,-1466,3271,-3927,-12239,28201,-8559
18860,-10224,-8084,5078,-12489,24261,-5897
18870,-13191,-12750,11973,-11279,21362,-4654
18880,-20527,-17429,23786,-8997,16962,-4147
18890,-32764,-23768,32764,8471,-7001,3749
18900,-21470,-10554,22489,18309,-17027,10612
18910,-12017,-1751,24924,21516,-13497,12712
18920,11689,-5444,-28732,28418,9229,8999
18930,10298,-17768,-32748,21561,13723,3592
18940,10049,-31407,-23962,2853,6981,515
18950,-4217,-32764,10829,-11020,-2147,-5415
18960,-16957,-18075,942,-2003,3325,-5960
18970,-18155,-17684,-3399,768,10299,-7370
18980,-17869,-16721,-17057,-867,18145,-7777
18990,-11340,-18498,-16840,-6943,9150,-4662
19000,-32025,-32067,11343,-16933,28006,-12851
19010,-23907,-19994,-9799,-11107,-279,-11496
19020,-25214,-20052,3107,-19774,5914,-12082
19030,-25649,-22165,15390,-22835,8542,-10306
19040,-23693,-19508,5147,-18420,1565,-6827
19050,-20130,-15589,5504,-19062,-392,-6268
19060,-16525,-15585,10932,-20584,-4023,-6854
19070,-11099,-12376,9680,-20273,-7282,-7091
19080,-10382,-11428,6382,-18305,-10586,-6091
19090,-6394,-9383,3930,-17606,-8458,-4395
19100,-5616,-7343,3281,-17193,-7222,-4550
19110,881,-2269,9606,-16846,-3022,-3113
19120,3885,1213,10316,-14220,3192,-1759
19130,2946,3669,9130,-9263,8143,-1147
19140,-6844,1906,8713,1870,13616,23
19150,-9382,1996,10239,6539,18803,2769
19160,-8877,2452,13147,12126,22011,6665
19170,-5326,2917,11171,17952,21025,9982
19180,-230,-5127,7152,14395,5823,8827
19190,1813,-8478,6999,11192,-8911,6841
19200,1631,-8844,3785,10102,-22091,4734
19210,-7545,-14567,-3241,11402,-32766,290
19220,-15145,-22909,-1825,13438,-32766,-1400
19230,-17553,-32764,15372,13587,-24861,2905
19240,-14411,-32764,17492,17963,-16527,5758
19250,-17253,-32764,14895,23779,-10591,4748
19260,-22314,-32764,3948,32177,-190,2633
19270,-24706,-32764,-614,32766,-2043,2269
19280,-28861,-32628,3305,24846,-4677,926
19290,-31166,-27622,10458,20074,-1693,2128
19300,-29268,-25574,7431,18610,-1071,5788
19310,-22823,-26833,2147,15805,-6215,8664
19320,-18549,-26075,4044,7694,-17125,8432
19330,-16533,-23130,-1020,5878,-15688,9225
19340,-13518,-19067,-2517,2250,-18648,10332
19350,-9997,-13259,1909,-1403,-24397,10785
19360,-3550,-8092,1893,-1591,-25173,12682
19370,1260,-2448,-930,-948,-20705,9940
19380,5366,218,-1208,-1397,-18752,6200
19390,17371,2664,54,-2320,-12906,1434
19400,23561,6734,-3953,-1676,-4816,470
19410,23163,11182,-7222,-2390,913,-2092
19420,14144,13672,-13432,-6202,12169,-7085
19430,12666,11084,-12292,-8584,17553,-8207
19440,9648,8500,-10450,-10294,21624,-9184
19450,-1066,1186,-3445,-12654,21996,-8540
19460,-4968,-3500,458,-13040,20344,-6422
19470,-7356,-7555,4275,-12983,18341,-4619
19480,-19187,-18178,27615,-13014,13312,-4857
19490,-32764,-27053,32764,-6012,6863,-3650
19500,-32764,-22538,32705,9140,-10220,3207
19510,-24128,-8142,22245,17370,-15085,11160
19520,-3152,-3836,3528,29926,235,12987
19530,6348,-18230,-32748,29641,15991,8744
19540,5646,-32764,-32748,20052,7240,573
19550,1889,-32764,-14957,1899,-5667,-4281
19560,4526,-15360,17285,-9790,-13198,-893
19570,27,-8629,24904,-6728,-2552,-3484
19580,-12934,-7458,-10270,706,11141,-7417
19590,-8521,-17081,-32748,-19,17019,-3421
19600,-13083,-26125,-17760,-11936,21040,-6791
19610,-17573,-29933,-1915,-17554,18997,-11515
19620,-32764,-32764,31459,-26668,32337,-15884
19630,-32764,-28996,1603,-10922,17626,-11519
19640,-28922,-18342,-8647,-14936,7363,-10167
19650,-27344,-17821,7948,-24077,12599,-9543
19660,-25210,-20484,14976,-25572,7342,-8061
19670,-23010,-19309,1250,-22175,-3025,-6745
19680,-17759,-17139,6574,-23385,-4309,-5715
19690,-12359,-16612,11165,-23676,-7287,-5082
19700,-8142,-15513,10718,-22458,-9949,-4352
19710,-4694,-12913,6554,-20318,-12112,-3391
19720,-279,-8985,6844,-20078,-8319,-1947
19730,1242,-7372,7090,-18523,-4002,-2947
19740,5088,215,10856,-13428,6064,-2602
19750,3598,3582,9959,-10052,10432,-1921
19760,-2835,2683,7867,-5107,12432,-2223
19770,-7756,857,6626,117,15997,-1521
19780,-9713,2852,9994,9496,25200,4879
19790,-9092,4507,9161,13409,24284,7776
19800,-6021,2630,5893,13961,14732,8693
19810,1438,-6656,10030,11121,-4935,7019
19820,5359,-8269,9356,11205,-15388,4998
19830,4385,-9031,5555,9700,-25321,2268
19840,-4859,-12125,-3968,9354,-32766,-1149
19850,-13780,-32764,13533,23249,-4750,1644
19860,-16671,-32764,12844,28395,-1077,2759
19870,-24193,-32764,3147,32742,3633,61
19880,-24458,-32764,-2896,32765,1158,406
19890,-22829,-32764,-3815,32627,-3780,606
19900,-24215,-32600,-1322,28755,-3365,-848
19910,-27300,-25390,12961,14380,215,3725
19920,-25172,-25493,10532,12781,-2879,7392
19930,-21936,-25839,6121,12193,-10441,7282
19940,-17058,-21439,-1341,8264,-10616,6229
19950,-15899,-17347,-3901,4307,-12104,7451
19960,-14967,-14900,59,244,-17231,8767
19970,-6169,-9706,1862,-936,-18678,10513
19980,452,-5488,869,-150,-19798,9202
19990,5001,-1022,-2556,-678,-15077,7394
20000,9983,1963,-1489,-2155,-13290,4959
20010,15808,5616,-3537,-2040,-6739,-1512
20020,19914,9653,-4958,-2542,-1847,-1911
20030,18820,13735,-8629,-3543,4773,-2661
20040,12770,13151,-13705,-8015,17012,-6747
20050,10005,9910,-10772,-10336,21865,-7660
20060,-957,-565,-2737,-12597,21993,-7502
20070,-5186,-6025,2058,-13286,20569,-6230
20080,-8412,-10066,7519,-13546,19378,-4737
20090,-26189,-20310,32627,-13616,17095,-3697
20100,-32764,-26134,32764,-56,279,1509
20110,-31788,-13836,27934,14715,-14474,9149
20120,-18727,-2148,22863,20394,-10421,13486
20130,10175,-4399,-23538,29248,8493,12248
20140,12786,-18102,-32748,23126,15665,5262
20150,11960,-32764,-28149,5984,3566,-1014
20160,-13796,-32764,15362,-9740,-3965,-6534
20170,-17414,-20528,7169,-4189,1467,-3813
20180,-18158,-16579,8052,397,14643,-4816
20190,-18656,-15266,-17805,-194,22920,-6781
20200,-9671,-16156,-27163,-6386,3551,-3582
20210,-11599,-24122,-8878,-17243,11022,-4920
20220,-15785,-28384,575,-19260,15192,-9473
20230,-32764,-32764,24400,-19958,31153,-16165
20240,-31597,-26162,7289,-12654,22395,-13010
20250,-27069,-19197,-9123,-9322,6299,-11074
20260,-26723,-15782,-9712,-16265,2696,-11145
20270,-23533,-20154,10513,-24866,1660,-7940
20280,-19958,-18151,8344,-21710,-1317,-6748
20290,-11840,-15350,11077,-21439,-6374,-5357
20300,-8098,-14727,15065,-20898,-8912,-5132
20310,-6243,-12447,15035,-18229,-8592,-5326
20320,-3453,-9021,8557,-14818,-3142,-3850
20330,-3198,-6394,4332,-13589,-751,-2962
20340,-2944,-3330,2610,-12473,-513,-3742
20350,614,1641,7918,-11186,5345,-3268
20360,-3518,2858,7087,-7325,5969,-3073
20370,-8145,1172,7998,-3593,8135,-2384
20380,-10664,616,10357,49,12984,-306
20390,-5543,3780,8882,9494,15551,6597
20400,-3155,1966,5447,11743,9269,7201
20410,-2431,-839,3998,11765,3072,6528
20420,2266,-5595,5393,12242,-8197,5591
20430,3094,-7834,6935,11763,-15572,4269
20440,-1163,-12795,6662,10702,-24129,2265
20450,-7483,-18832,1335,11583,-31640,427
20460,-17263,-32764,1594,13576,-32646,-38
20470,-13104,-32764,5358,14091,-27734,3202
20480,-11604,-32764,10877,17066,-19503,4187
20490,-16074,-32764,12452,26617,-5037,1004
20500,-17182,-32764,5400,31921,2476,909
20510,-19126,-32764,-334,32766,4297,640
20520,-25791,-32450,-858,29263,1624,-3490
20530,-32738,-27244,4162,20681,100,-2791
20540,-30443,-24972,10213,14689,-4284,1736
20550,-22979,-25695,3731,11801,-16838,2575
20560,-20481,-24404,3185,8532,-18074,2631
20570,-16656,-21028,-1570,6564,-15817,3866
20580,-14756,-16678,-1704,-157,-22925,5707
20590,-11187,-14457,1458,-605,-24736,6970
20600,-5925,-11106,725,1189,-22139,7405
20610,4779,-2866,-3223,2037,-13847,6895
20620,9536,1648,-4706,354,-11774,5419
20630,12618,5285,-5163,-510,-10228,2325
20640,15545,7823,-2997,-1168,-8003,-170
20650,18682,15235,-8645,-2260,5395,-1718
20660,15237,15346,-13993,-4644,11101,-3529
20670,13141,12548,-14583,-7962,17468,-5196
20680,4012,6085,-6279,-11395,25091,-7002
20690,-2528,2068,-671,-11624,24305,-6254
20700,-6986,-2202,3620,-11239,23728,-4489
20710,-32764,-20630,32764,15298,-10843,5283
20720,-9265,-3727,20207,24331,-15087,13506
20730,6623,-12636,-30783,29752,6399,11944
20740,7078,-23999,-32748,24779,9173,5015
20750,6684,-32272,-22913,4942,-450,-470
20760,2692,-24510,9564,-9408,-6236,-2429
20770,-1396,-17766,11490,-6088,-2018,-5360
20780,-13039,-16118,2994,-4959,15440,-9644
20790,-13685,-18395,-32748,-483,19447,-8311
20800,-16302,-25831,-23115,-9573,14566,-8709
20810,-17200,-30130,-7179,-17415,13754,-9949
20820,-23066,-31280,4580,-19909,14204,-13553
20830,-32764,-32764,23049,-19973,31508,-15400
20840,-32764,-25692,-3310,-7012,14598,-10471
20850,-27482,-18626,-14299,-11930,1962,-8456
20860,-21088,-19876,-2696,-24275,1599,-7036
20870,-20310,-22137,13474,-25643,248,-6518
20880,-18904,-19865,10875,-22561,-3309,-6301
20890,-14754,-17736,9895,-21517,-4778,-5334
20900,-6916,-13975,13595,-18954,-7030,-4833
20910,-6068,-12215,13096,-16610,-6451,-5212
20920,-5632,-9790,11241,-14884,-4003,-4176
20930,-3411,-3258,2254,-11838,-2081,-3821
20940,-1874,-1587,1891,-11907,324,-4208
20950,826,496,5288,-11899,4713,-3072
20960,-364,3335,10500,-6818,8349,-1029
20970,-7261,764,12467,-3537,10746,-953
20980,-10081,456,12887,1139,15587,1000
20990,-4709,3289,5665,12964,18436,7997
21000,-2629,3042,508,14024,14581,8621
21010,-3627,-798,2578,11653,5803,7315
21020,4213,-6725,7813,11074,-10468,7296
21030,6741,-8069,8318,10702,-20048,4926
21040,1220,-10697,5101,9931,-29030,1625
21050,-5263,-15689,-1203,11458,-32706,-213
21060,-23425,-32764,995,14299,-32220,-2294
21070,-18982,-32764,7928,14706,-23492,1973
21080,-15682,-32764,11232,19097,-13456,5226
21090,-20456,-32764,11394,26651,-3797,2366
21100,-18706,-32764,4907,31187,3195,2072
21110,-17833,-32764,-2174,32760,3853,1643
21120,-21357,-32764,-8306,32738,21,1
21130,-28084,-29770,9796,17537,-1598,396
21140,-27962,-27630,16200,15518,2834,4379
21150,-19570,-25857,4445,14944,-5625,6261
21160,-21341,-25545,172,10826,-12589,3082
21170,-20593,-23654,267,7091,-13077,3702
21180,-14661,-15553,-3988,1113,-13563,8089
21190,-11745,-12121,-1464,-1067,-18402,9571
21200,-7332,-8546,-1968,-887,-19893,10658
21210,5308,-925,-2188,417,-18641,8275
21220,10745,2268,-2456,-274,-14265,5761
21230,15394,6267,-3044,-996,-10749,2522
21240,18221,12043,-4810,-2080,-2591,-2042
21250,20678,15794,-8904,-4666,4516,-1781
21260,18113,15530,-13953,-7867,12343,-3430
21270,15057,9180,-9181,-11202,18962,-6179
21280,5717,5129,-4446,-13311,23996,-8965
21290,-444,-373,-107,-13097,23437,-8894
21300,-6252,-5030,3333,-12834,23025,-7814
21310,-15959,-13698,17304,-11871,19049,-5082
21320,-29116,-20031,32011,-9031,14559,-4147
21330,-32764,-25884,32764,509,2013,115
21340,-14872,-4213,14103,18932,-10209,13492
21350,-7676,755,23619,21455,-6613,13777
21360,5192,-1340,-6736,26619,-1082,12945
21370,9432,-28411,-32173,9801,8188,2690
21380,-2701,-32764,-2386,-4959,-186,-3235
21390,-14913,-32764,11438,-11043,-3276,-5974
21400,-13145,-23010,784,-4275,-3209,-3659
21410,-13653,-13551,-19233,2997,616,-5879
21420,-12520,-14717,-23328,-4643,9201,-3973
21430,-12199,-18447,-18850,-12443,12726,-1849
21440,-19685,-31838,7258,-17681,15648,-9493
21450,-30161,-32764,17232,-19299,26429,-14066
21460,-28480,-32764,9087,-16442,22177,-12770
21470,-23323,-27630,-1443,-10636,8273,-9664
21480,-23974,-19244,-4625,-16145,10837,-10985
21490,-25575,-21844,8528,-22838,7136,-11586
21500,-27516,-22573,11293,-23600,3514,-10123
21510,-22661,-17572,5527,-19325,1210,-6558
21520,-16635,-16424,11358,-19893,-1078,-5931
21530,-11749,-16171,13276,-19212,-4405,-5492
21540,-8994,-15566,11629,-17528,-8824,-5690
21550,1139,-1917,10352,-15141,1024,-2769
21560,4866,396,13650,-12408,7175,-2044
21570,-2911,1812,10307,-3933,9937,-2465
21580,-7626,304,9022,460,12151,-1425
21590,-8714,873,6930,4540,15964,1060
21600,-5785,3704,2871,10489,17286,6226
21610,-4038,2643,5189,11402,12414,6875
21620,-2415,-1215,6607,12124,4770,6533
21630,3729,-6962,8375,12146,-2553,4794
21640,3259,-8322,5640,10488,-18806,2743
21650,170,-10630,1985,9072,-28665,564
21660,-5335,-14975,-2087,9186,-32702,-1301
21670,-20271,-32764,3385,12537,-32209,-3649
21680,-17954,-32764,6940,14360,-23252,241
21690,-15004,-32764,10183,18164,-12814,3323
21700,-18931,-32764,10781,25442,-3445,984
21710,-17989,-32764,4170,30810,1678,1437
21720,-17724,-32764,-361,32756,2730,1813
21730,-18145,-32764,-2640,32761,2934,595
21740,-26624,-30340,250,22174,6803,-81
21750,-27965,-26397,10052,14150,3716,4409
21760,-22634,-25963,10823,12525,284,8108
21770,-21126,-24721,-249,11811,-9594,4772
21780,-17606,-21447,-2324,8105,-10105,5862
21790,-13016,-15168,-3396,1205,-16642,7046
21800,-11322,-12092,-1066,-286,-19504,7773
21810,-6934,-8333,-353,115,-20077,8575
21820,-801,-4350,-660,570,-19796,8143
21830,8724,1525,-2471,440,-13886,3546
21840,13214,4758,-2892,-62,-10380,758
21850,15133,6964,-2700,-609,-6177,-2355
21860,16493,13978,-7403,-3270,3564,-3074
21870,13327,12822,-10331,-6016,8129,-4210
21880,12912,11000,-10693,-8998,15031,-5241
21890,3915,5526,-3549,-11254,20849,-6923
21900,-1516,2182,344,-11357,20095,-6036
21910,-6345,-2499,4923,-11665,18500,-5108
21920,-10577,-6958,11403,-11980,17407,-4389
21930,-31876,-19388,32764,-5204,11563,-2624
21940,-32764,-20936,32764,5691,-198,2537
21950,-23752,-8410,23723,17116,-8029,10381
21960,3585,1234,6712,22408,-1278,15241
21970,15936,-7287,-32748,23026,11051,11037
21980,13291,-25666,-32748,12249,9736,2612
21990,-12136,-32764,21139,-13413,-2620,-8607
22000,-17904,-32764,13245,-12107,-5617,-6922
22010,-17369,-17080,-14601,4924,12626,-7321
22020,-13971,-12665,-29763,5233,5805,-7108
22030,-10596,-19659,-16762,-13408,12784,-3591
22040,-14512,-26908,-3564,-18942,19643,-7416
22050,-27969,-32764,15051,-19885,24421,-13261
22060,-30373,-29163,4425,-12700,17888,-13049
22070,-26229,-22062,-9365,-7625,5181,-10257
22080,-23894,-17024,-9090,-12673,7458,-9320
22090,-22056,-21217,16579,-24600,3568,-9445
22100,-21532,-20455,7008,-21076,-1294,-8114
22110,-18368,-17745,4108,-19167,-2779,-6632
22120,-15181,-15457,8581,-19367,-3601,-6226
22130,-8585,-11925,15449,-16951,-5267,-4922
22140,-6546,-11264,15208,-14768,-6580,-5033
22150,-9030,-10507,9474,-12600,-6093,-5227
22160,-5828,-5301,2240,-11201,-4505,-3858
22170,-4208,-3983,5723,-13249,285,-4164
22180,113,-816,11180,-13046,4208,-3374
22190,-3337,1271,10254,-3261,5494,-2915
22200,-8127,325,8348,-63,5625,-2113
22210,-9489,500,8049,1861,9297,138
22220,-3699,3548,7513,7286,8775,5503
22230,-1083,962,8272,10580,4347,6382
22240,-606,-2096,5636,13827,2017,5828
22250,799,-2952,4159,14430,-791,5062
22260,3387,-4195,4268,12845,-14475,3567
22270,634,-7209,4605,11423,-23323,1784
22280,-4727,-12281,3505,11237,-30886,168
22290,-16759,-28842,1900,14316,-32666,-1403
22300,-16893,-32764,6261,15246,-27246,1177
22310,-13499,-32764,10152,17725,-14938,4808
22320,-15627,-32764,11782,21956,-8594,5188
22330,-21226,-32764,4748,28969,801,3093
22340,-19811,-32764,-304,32284,3751,3537
22350,-18858,-32764,-1180,32513,2629,3890
22360,-26877,-28631,4439,20970,1251,792
22370,-31109,-26630,14384,14649,-258,2624
22380,-26275,-25871,13924,13357,-4848,6080
22390,-25632,-24798,591,10346,-11951,4978
22400,-18461,-22186,840,4478,-15374,7211
22410,-1462,-6444,864,-2254,-19327,7364
22420,2625,-2977,-887,-1928,-15101,5911
22430,5966,-769,-2595,-2193,-12342,4254
22440,15367,1563,-1260,-2605,-6441,860
22450,20251,5766,-1994,-3123,915,529
22460,19387,8950,-3253,-4170,5838,-1126
22470,13392,9464,-8864,-6334,16252,-4988
22480,11251,8406,-8310,-8092,20826,-6357
22490,7447,6789,-6328,-9367,23247,-7409
22500,629,3924,-3374,-10330,23000,-7608
22510,-10801,-5053,4568,-12115,18440,-4667
22520,-14740,-8908,12098,-12705,16106,-3621
22530,-23749,-14344,24265,-11123,12918,-2980
22540,-32548,-16192,32764,8132,-7682,5128
22550,-19455,-5400,22788,19400,-10549,10636
22560,-9855,23,25386,25635,-5958,12611
22570,14340,-15832,-32748,23492,12475,6555
22580,13921,-27647,-30805,10675,4539,-1036
22590,5716,-32764,-1033,-3486,645,-5390
22600,-3162,-32764,8146,-12515,-968,-4638
22610,-15936,-22671,-1526,-2137,13302,-6588
22620,-21453,-20483,-16637,-1094,25216,-9108
22630,-17990,-20259,-26129,-4899,11565,-6133
22640,-16580,-24721,-9634,-13271,8192,-6159
22650,-19952,-26255,2924,-17608,11075,-9910
22660,-31693,-28348,17738,-15957,32077,-14418
22670,-28037,-25099,-356,-8245,22651,-12068
22680,-25007,-20220,-11942,-8197,6228,-10188
22690,-22904,-20188,-7488,-16737,2133,-9245
22700,-26959,-21855,12957,-22675,4785,-8142
22710,-24746,-19562,9579,-18061,4332,-6922
22720,-21338,-16572,6730,-16685,2252,-6136
22730,-16034,-15122,9940,-18119,-2670,-5325
22740,-8695,-13217,13831,-17686,-7660,-5098
22750,-9982,-13289,11401,-16529,-8276,-5734
22760,-7266,-8600,7158,-15768,-7898,-4217
22770,-1991,-4109,3226,-15345,-4228,-3081
22780,90,-2454,6007,-15340,70,-3214
22790,3681,-952,8895,-13891,4605,-2050
22800,-2624,2030,11492,-6851,7947,-2170
22810,-8693,893,12082,-2099,11846,-1575
22820,-9528,1159,11105,3190,16064,1024
22830,-8681,2271,7550,8513,17206,4293
22840,-2868,502,2428,11300,8940,8003
22850,-1711,-3455,5230,10707,2096,7684
22860,5261,-6206,10012,11692,-12769,5558
22870,3802,-8505,9392,11133,-21294,2862
22880,43,-11484,3202,10762,-29904,847
22890,-6968,-16334,-3597,11702,-32751,-960
22900,-19110,-32764,2865,15272,-31419,-2836
22910,-16448,-32764,6196,17804,-19275,881
22920,-15440,-32764,9365,21969,-9909,3873
22930,-22164,-32764,10332,27889,-5342,1572
22940,-21068,-32764,5007,31604,-1368,1205
22950,-20254,-32764,190,32762,-2776,828
22960,-20956,-32764,-2330,29635,-1666,-214
22970,-22929,-31056,6370,21811,2034,85
22980,-24589,-26997,12630,17309,1540,2269
22990,-20737,-25734,9628,16420,-4142,4268
23000,-23862,-22753,2590,12051,-13325,576
23010,-19231,-20445,-326,8913,-11839,2688
23020,-17561,-16354,-5300,5943,-13256,4191
23030,-11684,-13207,-433,293,-20865,7589
23040,-5366,-10107,-242,1697,-20915,7924
23050,911,-6497,-2507,2592,-16918,7293
23060,11679,903,-3965,1691,-10482,4310
23070,16587,4760,-3127,1542,-8503,1591
23080,17522,7335,-3686,1755,-5405,-1679
23090,20445,16398,-9092,-1336,9157,-2007
23100,15299,16311,-13171,-4379,15923,-4389
23110,10969,12599,-12356,-7734,21754,-6050
23120,548,5029,-4194,-11563,24953,-6316
23130,-4874,512,245,-12402,23573,-5119
23140,-8566,-3562,4060,-13296,21543,-3507
23150,-15891,-13322,23665,-12985,15134,-2751
23160,-26533,-19356,32764,-7899,11055,-2039
23170,-32764,-22834,32764,1451,406,850
23180,-26497,-11025,25011,14328,-11678,7155
23190,-3915,1714,10905,25342,-5316,12937
23200,10677,-7269,-25647,26865,7502,9971
23210,11704,-21077,-32748,21782,11856,2474
23220,-5338,-32764,-196,-9359,-3730,-9185
23230,-15269,-32764,18612,-18442,-6677,-6863
23240,-13520,-24565,16723,-7915,696,-1622
23250,-12543,-14489,-16431,7542,12501,-6355
23260,-10430,-13784,-32543,8161,2673,-6584
23270,-31989,-32240,23167,-18027,32507,-13656
23280,-27561,-26933,4905,-9264,26407,-11232
23290,-25639,-22240,-6712,-3601,20741,-10089
23300,-31221,-16037,-388,-7593,22163,-11263
23310,-32764,-18903,10491,-20137,9327,-13502
23320,-32764,-18180,6896,-19936,4257,-12004
23330,-30191,-17527,6254,-19975,1460,-10273
23340,-15766,-17632,13286,-21651,-6169,-6269
23350,-9254,-18015,13022,-20811,-8875,-5368
23360,-5893,-16931,11901,-19256,-10601,-5449
23370,-1993,-11548,6952,-15684,-6898,-4831
23380,-295,-7883,7551,-15663,-2635,-5953
23390,2550,-2779,9310,-15165,4440,-5709
23400,4464,2205,9807,-12019,11411,-5369
23410,-4285,5491,9076,-1321,12119,-6210
23420,-9922,2905,9096,2968,13183,-4487
23430,-11332,1965,8402,6633,15808,-1675
23440,-4750,2832,1186,9956,16394,5741
23450,-1855,-911,3599,11511,6848,6526
23460,-1503,-3433,4728,12457,1214,5466
23470,1355,-3817,5274,13475,-3441,4640
23480,3282,-4583,7370,11681,-18221,1306
23490,398,-7405,5990,9868,-26765,-316
23500,-10300,-16113,-730,10503,-32767,-3830
23510,-15342,-26748,1740,13422,-32716,-4519
23520,-16815,-32764,5504,17289,-26506,-3226
23530,-17206,-32764,5676,22671,-10284,-122
23540,-26657,-32764,9683,28473,-2254,1664
23550,-27670,-32764,6147,30110,1068,1359
23560,-24681,-32764,-136,32449,611,2357
23570,-21130,-29982,-3195,30660,-10113,2324
23580,-22277,-29737,1550,23137,-8936,510
23590,-25477,-28752,6930,15516,-4880,1547
23600,-21682,-28552,9953,10800,-4917,9704
23610,-19042,-29165,4829,7900,-8898,9815
23620,-18086,-28558,3510,5785,-11600,7707
23630,-20980,-27153,1507,3772,-9504,7287
23640,-12865,-16128,-3493,-655,-13306,12878
23650,-9826,-12561,-1660,-2800,-19441,14566
23660,-5156,-8034,-3689,-2680,-20031,15776
23670,2224,-2255,-1585,-2048,-20543,14449
23680,12353,4702,-1544,-1283,-12910,5086
23690,15505,3968,-2127,-1689,-8208,1107
23700,22527,10296,-4103,-5188,4524,536
23710,18579,11313,-6130,-7031,9475,-2420
23720,12717,10682,-8181,-8310,13500,-5700
23730,5435,4913,-5417,-9916,18331,-7860
23740,2515,151,-2062,-11904,18070,-8344
23750,285,-3851,1158,-11861,16678,-8317
23760,-2558,-6463,4274,-11295,14996,-7580
23770,-10896,-11911,17187,-10827,8611,-3643
23780,-18192,-15528,28532,-8189,4563,-815
23790,-26644,-15667,32764,-659,-2892,1935
23800,-13399,-2144,13207,18382,-4846,7745
23810,-6219,-740,13894,23306,-1651,8051
23820,2973,-5558,1427,26951,1244,7256
23830,6216,-14301,-32576,23332,11256,4234
23840,-8121,-32764,-10568,-1750,1418,-1083
23850,-18227,-32764,1280,-5847,2008,-4567
23860,-17166,-22239,-1583,-3412,2004,-4971
23870,-17513,-15367,-1851,-2615,9811,-5714
23880,-15480,-14789,-18194,-4394,15986,-4681
23890,-11482,-16219,-25527,-7198,10258,-2792
23900,-14502,-26699,-5727,-17176,8297,-6629
23910,-21768,-29518,5353,-16976,7392,-11306
23920,-29439,-32702,26005,-17648,14077,-13437
23930,-23622,-23012,-8062,-10310,193,-11266
23940,-22485,-20284,-11625,-14901,-1849,-11121
23950,-25228,-22602,5075,-24924,6167,-10943
23960,-24478,-22660,9453,-23883,1508,-6967
23970,-23384,-19470,4529,-22003,-29,-5665
23980,-19449,-18703,10264,-22028,-1930,-5766
23990,-10392,-15277,12561,-18189,-2436,-4404
24000,-10663,-15475,10225,-16697,-6573,-4999
24010,-11213,-12105,6326,-16105,-10197,-3931
24020,-2779,-6291,5194,-18620,-10799,-1965
24030,558,-5099,8557,-18297,-5802,-2860
24040,5688,-1645,11519,-16116,1003,-2195
24050,7577,4714,11646,-12320,6947,-2092
24060,-4302,2298,10822,-1610,6205,-3458
24070,-8861,540,9771,2702,10362,-1598
24080,-9488,1099,8218,6716,14128,1551
24090,-5719,3683,5583,12888,16349,7399
24100,-3639,352,4835,14182,13412,8218
24110,-1351,-4009,5460,13955,3691,7150
24120,-12782,-26896,-1463,10360,-32766,-1004
24130,-17840,-32764,3651,11510,-31962,-404
24140,-13712,-32764,11449,15567,-19530,5530
24150,-15310,-32764,12309,18711,-16362,3799
24160,-15972,-32764,9613,22769,-10164,2034
24170,-15868,-32764,3877,28752,-5528,1697
24180,-17861,-32764,2013,32743,-3974,-540
24190,-19323,-32764,4570,31397,1686,-2093
24200,-20380,-32764,6837,27203,5887,-1234
24210,-22496,-28095,3327,16585,-4426,3907
24220,-21406,-27487,7273,12411,-10320,3362
24230,-23539,-26755,3819,12025,-12396,1645
24240,-17282,-21598,-2024,8604,-5366,6806
24250,-14941,-18412,-3138,4942,-9682,8300
24260,-13543,-14889,25,1587,-17697,8858
24270,-4397,-7279,-78,1209,-17977,9483
24280,1376,-3575,-1149,791,-16100,8145
24290,6806,-382,-1553,-35,-14440,6210
24300,11436,3612,-2625,-400,-11534,3719
24310,17233,7987,-2680,-773,-3818,-795
24320,20227,12109,-5608,-2113,3602,-743
24330,17944,13778,-9313,-4116,10052,-2908
24340,13376,12595,-10448,-8833,21430,-7041
24350,9600,10503,-8571,-9985,24342,-8229
24360,-1806,516,-1377,-11398,23414,-8062
24370,-6442,-4760,2148,-11409,22148,-6577
24380,-10466,-8906,7753,-11364,20071,-5116
24390,-26946,-20630,32331,-8522,11941,-3529
24400,-32764,-26749,32764,351,814,-495
24410,-32369,-15936,31114,13828,-14918,6438
24420,-8358,-85,24239,25698,-6557,13787
24430,6610,-5729,-22394,28902,7031,12116
24440,8910,-19991,-32748,22892,15616,5224
24450,4964,-32764,-26718,6268,6669,-1474
24460,-6950,-32706,12487,-8618,-10657,-3604
24470,-7195,-16663,8218,-3132,-8772,-2369
24480,-10849,-13030,-2310,1061,2369,-4903
24490,-12003,-14066,-29948,-1560,17686,-3363
24500,-11979,-18968,-20714,-8153,16822,-1863
24510,-14567,-24358,-5422,-15067,17327,-3893
24520,-32764,-31571,21758,-20636,31501,-11964
24530,-29553,-28598,4200,-13057,20984,-10924
24540,-24236,-25681,-9583,-7389,8227,-9363
24550,-18185,-18827,-554,-17365,10950,-8393
24560,-15811,-19011,8365,-20828,5607,-8395
24570,-21587,-19849,4344,-21690,-904,-9326
24580,-21346,-17961,3964,-18778,306,-8320
24590,-17551,-15596,9974,-19016,-1504,-6724
24600,-13024,-13911,14924,-18168,-3559,-5882
24610,-9070,-11467,12125,-14240,-4830,-6088
24620,-9202,-9325,8539,-13355,-6279,-6284
24630,-9090,-7058,3926,-12745,-5915,-5747
24640,-6889,-5615,2731,-13011,-2469,-4036
24650,575,-987,13228,-12827,5035,-2559
24660,765,268,12832,-8860,9433,-2155
24670,-3056,1165,7904,-3526,8946,-2096
24680,-9240,2277,2910,1394,11108,1165
24690,-10217,4116,5342,2690,14463,3989
24700,-6497,4567,9824,5666,13393,7034
24710,-2287,2504,6831,11207,8980,8461
24720,-593,-5113,6224,12246,-885,6321
24730,4278,-7294,8125,9943,-10883,6473
24740,6179,-10430,8879,7228,-22454,4910
24750,-5037,-16541,-2143,8876,-32766,-705
24760,-16037,-32764,5636,13590,-31508,-2983
24770,-13731,-32764,9001,17215,-17498,592
24780,-12587,-32764,9617,22518,-4625,3572
24790,-21197,-32764,7895,28597,-1698,722
24800,-21812,-32764,2357,31838,575,845
24810,-19446,-32764,608,32763,-572,1527
24820,-18447,-32764,2837,32393,314,683
24830,-18406,-30835,8151,23725,5804,-963
24840,-24384,-28682,4664,20146,2828,-154
24850,-23841,-25571,7293,16218,-6043,827
24860,-21120,-22014,607,10978,-9838,2001
24870,-18907,-19745,-1353,8035,-10789,3419
24880,-15580,-15901,-4573,4973,-13721,4458
24890,-10657,-11002,-1181,815,-18069,7672
24900,-3848,-7497,-961,1443,-18775,8139
24910,3208,-3569,-2602,1391,-16151,6876
24920,8405,-315,-2626,263,-12264,4568
24930,15743,7215,-1495,-543,-6593,-487
24940,18332,10590,-2149,-500,-2012,-1969
24950,20282,15321,-6181,-1486,5640,-1741
24960,14195,15604,-12184,-7098,20251,-5865
24970,9685,12416,-9042,-9670,25461,-7257
24980,-19058,-10804,18121,-10887,20132,-4520
24990,-29670,-17534,30343,-7387,14739,-3075
25000,-32764,-23906,32764,997,3936,1228
25010,-15466,-5292,19044,17596,-10117,12039
25020,-5767,414,17065,23325,-5087,13708
25030,9707,-1732,-11091,25800,4236,12910
25040,11264,-31285,-26505,7896,10471,-1776
25050,-1084,-32764,17097,-3528,990,-6146
25060,-13552,-32764,19179,-12036,-9451,-5871
25070,-14340,-25233,-652,-4655,-9571,-3477
25080,-17908,-15999,-29450,6660,4896,-6752
25090,-15901,-17699,-25015,-4424,13932,-3728
25100,-15164,-20268,-13341,-12410,15974,-1886
25110,-27051,-30694,20735,-16912,27929,-7820
25120,-28863,-32029,10873,-13732,27016,-10116
25130,-23362,-29537,-5866,-8813,11249,-9400
25140,-19281,-25932,-10384,-9842,8021,-8755
25150,-16743,-20482,5065,-17657,9388,-9418
25160,-17355,-20714,11592,-19514,5739,-10289
25170,-22027,-21324,9711,-18955,4477,-11218
25180,-24933,-17791,2365,-15159,6449,-9443
25190,-20497,-14173,10417,-16001,3268,-8134
25200,-12185,-11774,13299,-14863,-4483,-7414
25210,-10111,-11132,11293,-13561,-7127,-7399
25220,-10174,-10483,9065,-12774,-8218,-7156
25230,-6500,-6588,3933,-12613,-8677,-6202
25240,-2869,-4468,7579,-14798,-3433,-3740
25250,886,-1979,12042,-12816,3191,-3691
25260,1968,151,13379,-9030,9787,-3183
25270,-5591,1415,7060,187,7332,-1862
25280,-9391,1668,4451,2463,9669,-5
25290,-9799,2781,2044,3991,14358,2815
25300,-848,2657,9966,10969,10814,7913
25310,-693,-839,7216,15604,8951,7205
25320,-453,-3176,4626,15937,4937,6139
25330,3730,-5914,6255,12204,-12959,5550
25340,3575,-8169,8097,10846,-23174,3084
25350,-678,-11751,6135,11243,-30469,625
25360,-7786,-17345,1885,13477,-32744,-1470
25370,-18640,-32764,4828,17158,-28860,-2212
25380,-14989,-32764,8680,18686,-14961,2341
25390,-13135,-32764,10526,22878,-6560,4793
25400,-20156,-32764,6902,28588,258,2408
25410,-19683,-32764,2016,31533,2934,2837
25420,-25456,-31478,-3239,28932,365,593
25430,-28664,-29513,5620,20134,629,425
25440,-30499,-28261,14924,14175,1052,2629
25450,-20113,-26707,9919,14049,-9183,5517
25460,-24155,-25983,1392,12100,-10955,3988
25470,-19258,-22657,-2193,7464,-12626,5869
25480,-15392,-19542,-1055,3077,-16152,7219
25490,-11500,-15213,-2062,934,-18230,8382
25500,-5522,-12383,-658,-449,-18894,9230
25510,110,-8753,-388,-461,-18474,8278
25520,7128,-245,-2492,-1451,-12231,4743
25530,10913,2117,-1297,-2409,-9660,2179
25540,15055,3669,85,-2352,-5685,-87
25550,19381,11643,-3865,-3028,5678,-2444
25560,15361,13412,-7266,-4471,10172,-4476
25570,11441,12313,-9584,-6321,15328,-6167
25580,9737,9948,-8182,-8401,19621,-6976
25590,947,4661,-1727,-10635,21231,-7883
25600,-4648,221,1794,-11177,19512,-7102
25610,-8295,-4798,6276,-11563,16874,-5880
25620,-19815,-11642,23512,-8705,12402,-3466
25630,-29833,-17374,32764,-2743,7077,-621
25640,-18546,-7226,19887,17690,-3321,8846
25650,-7742,-1925,21763,23091,-271,11365
25660,5465,-6526,-5830,24978,7856,10978
25670,8775,-30475,-24636,11437,5917,-671
25680,130,-32764,7492,612,246,-4804
25690,-11881,-32764,12841,-8320,298,-5376
25700,-13988,-27884,2646,-3483,1582,-3151
25710,-18259,-17211,-19809,2103,15544,-7829
25720,-15540,-15208,-26867,-301,11031,-7253
25730,-14862,-17559,-21664,-7095,8350,-5409
25740,-23909,-29607,14115,-17123,12390,-8991
25750,-32764,-31946,26395,-18960,28287,-11669
25760,-27432,-28851,9286,-13535,24308,-10130
25770,-19181,-20783,-13953,-11481,4173,-8621
25780,-18706,-20246,-1877,-18994,6449,-9012
25790,-21914,-22027,13495,-22656,8007,-9667
25800,-25513,-19622,4560,-17883,3804,-8732
25810,-22427,-16988,2206,-17710,1581,-8017
25820,-17326,-13693,8559,-19381,-1458,-7212
25830,-8704,-12654,13992,-19180,-5299,-6995
25840,-2695,-4905,4138,-14181,-6099,-3165
25850,-667,-1411,7352,-15108,-3690,-3818
25860,4082,1816,8766,-11562,5812,-2469
25870,-400,2289,9086,-6678,8437,-2515
25880,-7476,431,8450,-1879,8650,-2427
25890,-10027,2909,6969,5709,16820,3738
25900,-4716,3410,8236,8771,13942,6994
25910,-1630,170,6524,11189,8845,8088
25920,1895,-4219,6144,12182,-2922,5590
25930,4452,-4956,7354,12593,-10271,4344
25940,5001,-6677,8795,11696,-18375,2210
25950,2376,-9893,6517,10993,-26258,-126
25960,-13683,-21935,-2696,14469,-32767,-4020
25970,-18789,-32292,1302,15589,-31917,-4279
25980,-21643,-32764,4567,17124,-21739,-1400
25990,-19715,-32764,9466,23553,-7457,4048
26000,-21443,-32764,8711,25973,-4268,2988
26010,-19735,-32764,2835,29711,206,3318
26020,-21513,-32520,-5860,30012,-3503,3634
26030,-20714,-31028,2112,22744,-5230,2476
26040,-23584,-30493,10032,17525,-2085,2045
26050,-20437,-27946,7499,14894,-6947,5570
26060,-21144,-27221,4224,12289,-12063,4858
26070,-21413,-26553,-243,8856,-11842,5346
26080,-13625,-20484,-1369,4189,-10646,8444
26090,-11638,-17065,-1983,3167,-14103,8966
26100,-9487,-14301,-2556,2219,-16899,10130
26110,2750,-5092,-810,-220,-17660,11019
26120,8581,-242,-766,-516,-13691,7962
26130,12188,3285,190,-472,-9465,3949
26140,15700,7375,-431,-244,-5145,884
26150,21690,11414,-3164,-2293,6854,-152
26160,19037,13861,-5797,-3985,13919,-2335
26170,13074,12548,-6060,-5583,18840,-5125
26180,5819,9607,-3357,-7218,21159,-6475
26190,2292,5777,-1735,-7897,20507,-6541
26200,-1596,1319,669,-8423,19756,-6195
26210,-8304,-5482,7635,-7955,14898,-4863
26220,-11981,-8181,14019,-7000,11070,-4373
26230,-18077,-11393,21510,-4983,6232,-3711
26240,-24707,-12382,27000,-898,129,-1876
26250,-17238,-5036,20768,13736,-6212,5256
26260,-8627,-237,19665,19588,-4400,7894
26270,12078,-12102,-31859,19309,11612,3882
26280,10816,-26194,-26149,9174,12373,-139
26290,2207,-32764,-6177,-2355,8598,-4579
26300,-20965,-32764,1949,-9055,2461,-3980
26310,-17312,-26656,-7780,6826,6347,-2558
26320,-20325,-19842,-12540,7605,14374,-7184
26330,-18615,-16751,-18869,2577,13244,-7939
26340,-10388,-15472,-11360,-8523,14372,-2482
26350,-16887,-25162,-900,-13163,20083,-5983
26360,-28679,-32764,13722,-15277,23358,-10938
26370,-23625,-26509,-1456,-10598,12993,-10798
26380,-18651,-19785,-9957,-10482,4662,-9802
26390,-17342,-19987,-3379,-16721,6188,-10005
26400,-19922,-22370,10795,-21051,7334,-10278
26410,-22902,-19311,5962,-16052,3838,-7888
26420,-21084,-16457,4262,-15595,1906,-7399
26430,-18187,-13554,8463,-15840,-1123,-7356
26440,-10653,-12293,13596,-13675,-2866,-5987
26450,-9768,-10797,11286,-12068,-4248,-5361
26460,-8704,-8046,8499,-11044,-6856,-5060
26470,-6877,-6391,5744,-11115,-6961,-4146
26480,-940,-2324,7344,-12151,1301,-3872
26490,1081,-205,11869,-11319,5498,-4382
26500,-6533,768,9072,-3522,6299,-3795
26510,-10018,979,6030,38,9160,-2271
26520,-11106,1867,6237,2049,13171,192
26530,-5908,3258,6406,4991,13954,3011
26540,-1623,526,5512,11331,7042,6194
26550,-891,-2384,5007,11315,3358,5664
26560,1381,-3274,4845,10618,-3360,5508
26570,3191,-5157,5545,10447,-18606,2908
26580,1827,-7590,5364,10573,-24214,1269
26590,-1962,-11455,5153,11292,-29810,-411
26600,-7919,-17447,3042,13749,-32667,-2410
26610,-12943,-32764,5576,18075,-23002,-1922
26620,-12197,-32764,7124,19350,-11070,1895
26630,-15340,-32764,8256,21845,-6716,3605
26640,-22481,-32764,4694,26016,-3289,2077
26650,-21895,-32764,207,28621,-903,2755
26660,-20159,-32764,-528,28919,-1082,3531
26670,-18961,-31917,3590,25974,-605,3043
26680,-22996,-30522,10578,18064,321,1800
26690,-24537,-29134,10900,14656,-4068,3698
26700,-12631,-19677,-685,3278,-11532,8226
26710,-9508,-13577,582,979,-16052,8296
26720,-4741,-9357,-1113,-312,-18701,8442
26730,86,-5662,-484,-442,-16209,6589
26740,2792,-2965,-620,-472,-12712,3741
26750,7629,2283,-3494,-114,-5814,-151
26760,10459,3134,-1197,-810,-4059,-2225
26770,17288,6119,-1128,-1758,1571,-2258
26780,13102,10952,-3648,-4856,9227,-5455
26790,10303,10308,-5017,-6156,12325,-6597
26800,7519,8878,-4637,-7462,14564,-7313
26810,-1487,3518,-8,-8958,14932,-7185
26820,-5662,-1220,3358,-9164,13413,-6446
26830,-8959,-5443,8142,-9178,11912,-5854
26840,-22077,-12617,24819,-8323,7482,-3587
26850,-29055,-14957,32764,831,1513,-288
26860,-22122,-8809,25169,12191,-2883,4765
26870,-12797,-1867,25360,21929,-1119,9067
26880,18115,-12542,-29160,23696,18351,5967
26890,17276,-27639,-32015,15612,19271,-2984
26900,9149,-32764,-3329,6184,3355,-8967
26910,-7155,-32764,23128,-7973,-10691,-9167
26920,-25126,-17672,-1107,3703,10197,-6175
26930,-25368,-15913,-13387,2463,30874,-6545
26940,-13200,-12141,-32671,-749,5765,-3893
26950,-13348,-18145,-16371,-9366,3764,-3023
26960,-16666,-23450,-457,-15836,7399,-5667
26970,-32764,-32764,29010,-18665,27470,-12829
26980,-32764,-26914,5224,-12719,18356,-11239
26990,-27130,-20958,-7488,-13171,3731,-9010
27000,-19650,-18464,-6750,-20412,-2464,-6998
27010,-15916,-20657,10362,-27003,-806,-7010
27020,-17971,-20269,10740,-24609,-1129,-7429
27030,-19857,-19539,5998,-21547,-1872,-7604
27040,-13166,-14624,11114,-21178,-5478,-6464
27050,-9281,-13562,14720,-19775,-9649,-7292
27060,-7768,-12525,14666,-17710,-10156,-7960
27070,-6139,-10040,11084,-15932,-9052,-7169
27080,-1957,-6726,6113,-15599,-7014,-4116
27090,-38,-4076,5095,-14427,-4085,-4338
27100,-558,-1814,4170,-12641,217,-5372
27110,-1520,2936,4438,-8231,4973,-3330
27120,-4607,2017,5292,-4613,6797,-2987
27130,-9239,710,6649,2623,14279,-675
27140,-6077,1132,10050,6192,15432,2723
27150,-1020,1321,10133,9758,11552,5352
27160,4873,-4358,7530,10756,539,4264
27170,6992,-4726,5100,11406,-12129,2969
27180,6865,-5723,3643,11735,-17698,805
27190,2853,-8643,4059,10985,-25675,-1576
27200,-11359,-20735,2007,12627,-32766,-5385
27210,-20038,-30777,2520,15447,-31936,-6610
27220,-24339,-32764,2570,17860,-21913,-3957
27230,-22977,-32764,9448,21543,-11503,3287
27240,-25198,-32764,11751,22210,-10244,2784
27250,-23658,-32764,5879,26753,-4632,3178
27260,-20520,-31057,-1443,31637,-3753,4979
27270,-21097,-29473,1718,26883,-3246,3653
27280,-23440,-28422,3058,21045,-975,2688
27290,-23440,-26424,9835,11391,-6096,7221
27300,-21366,-26370,5468,10206,-9276,8766
27310,-19758,-26546,1274,7856,-13362,7879
27320,-20724,-26191,-109,3764,-14625,7763
27330,-10948,-20027,928,-2580,-16320,12155
27340,-6598,-15904,-7,-3167,-19200,11830
27350,-3545,-9134,59,-6723,-21783,10187
27360,-2455,-6189,-1157,-7007,-19902,9273
27370,2852,-2832,538,-6409,-18421,8068
27380,12083,2119,542,-5799,-8298,4088
27390,14900,2957,1089,-5787,-3617,1983
27400,15450,4669,622,-6106,1192,488
27410,13668,7177,-411,-6840,5324,-1007
27420,8877,9198,-5261,-8660,12315,-4688
27430,7934,8728,-6701,-10147,15931,-6081
27440,6520,6600,-5116,-11727,17622,-7499
27450,-2438,-2370,1727,-12213,16685,-8755
27460,-6602,-6362,6223,-12060,8207,-7457
27470,-10203,-10714,11909,-11841,3439,-5368
27480,-16155,-15849,23478,-10145,686,-3188
27490,-26488,-16124,32764,6774,-18455,1664
27500,-19873,-7193,32456,18298,-18147,5734
27510,-9361,-4083,23767,29379,-13953,8707
27520,14841,-11652,-32748,24332,12356,3307
27530,4886,-32764,-6854,-4665,455,-2702
27540,-12481,-32764,12644,-11175,-11397,-6912
27550,-18261,-25059,3403,-5218,-11262,-8437
27560,-21248,-17723,1098,-14856,19310,2260
27570,-22864,-22132,10354,-21110,17186,461
27580,-24016,-27086,9805,-20340,6426,-2908
27590,-21662,-30993,-1727,-15807,9774,-7056
27600,-20204,-28758,-2990,-16995,14251,-6422
27610,-17418,-24308,-966,-20381,10893,-5527
27620,-15533,-22316,1396,-25490,3822,-5123
27630,-17285,-26016,8619,-29359,-8288,-7019
27640,-20034,-24514,11329,-28707,-9377,-6586
27650,-17153,-22528,13675,-26325,-6813,-4595
27660,-12948,-17010,9553,-20200,-4428,-3300
27670,-6871,-14605,10367,-20222,-5866,-2304
27680,-4541,-12778,10221,-19834,-7123,-2932
27690,-2905,-9564,8925,-18694,-8072,-3522
27700,823,-4412,7465,-14257,661,-3112
27710,887,-1883,6672,-11397,7347,-3663
27720,162,1335,7840,-9421,12244,-4352
27730,-4653,3046,6420,-2782,11625,-4352
27740,-7246,2507,4805,-104,8365,-3710
27750,-10878,2064,6967,870,7913,-1902
27760,-1654,304,8860,8120,6644,6246
27770,2795,-1865,6765,11829,3414,6228
27780,5086,-2780,7436,12903,-897,4640
27790,5241,-4937,7795,12281,-15538,924
27800,1361,-7000,5719,11348,-24695,-1318
27810,-4119,-9380,1468,11277,-31784,-2899
27820,-18196,-26690,-311,14768,-32639,-5515
27830,-23701,-32764,2811,16931,-26100,-4118
27840,-22097,-32764,5478,19533,-12975,1175
27850,-23591,-32764,12642,23560,-7733,4889
27860,-25675,-32764,7491,26678,-3836,5167
27870,-23054,-32764,445,29940,-4321,6464
27880,-20519,-32764,-2236,29187,-7771,7023
27890,-20029,-31152,6130,20414,-4731,3001
27900,-23454,-29096,8542,16923,-3971,2557
27910,-24191,-27462,8330,13131,-8329,4308
27920,-20099,-27460,7218,7073,-17887,4772
27930,-20270,-26355,5442,5756,-16928,4231
27940,-17076,-23236,3752,3349,-12975,6990
27950,-14206,-19140,-2,762,-13637,9604
27960,-9456,-13867,-146,-4358,-21419,12002
27970,-3294,-10113,1711,-4892,-21190,13088
27980,7087,-2832,-142,-3955,-16259,12428
27990,11539,574,-1142,-4346,-8005,8456
28000,13454,2240,-317,-3949,-5802,4365
28010,19793,6373,299,-3771,4954,1368
28020,17474,8639,-2014,-4935,9934,-905
28030,13017,9260,-4102,-6028,13786,-3565
28040,9173,9191,-5523,-6845,16822,-5629
28050,3570,6772,-4432,-9008,20113,-7300
28060,551,1061,-1396,-9748,19354,-7784
28070,-3255,-3991,983,-9635,17477,-7859
28080,-11546,-10413,10348,-9648,10085,-5582
28090,-18576,-13498,20209,-8288,5849,-3220
28100,-25714,-17901,32489,-3458,-749,311
28110,-21411,-7355,21455,18873,-12159,9166
28120,-9025,-2910,17916,27406,-6292,12514
28130,5245,-6605,-6588,29417,4764,11711
28140,11041,-15307,-32748,23818,19242,7230
28150,3774,-31099,-6856,1421,5152,-746
28160,-5314,-31901,-237,-4157,2180,-2994
28170,-9358,-23537,2473,-4371,1777,-3360
28180,-14517,-19901,-3394,-2885,6960,-5774
28190,-22224,-19997,-19242,-7011,19704,-7940
28200,-20470,-21713,-17635,-8960,4778,-5552
28210,-23341,-28916,6981,-19463,-3117,-11079
28220,-32051,-32440,20363,-21968,12520,-14931
