timestamp, ax, ay, az, gx, gy, gz
0,3989,-13996,4784,-8165,24,-218
10,3028,-15146,3041,-8028,3200,-776
20,-330,-17483,1866,-5560,2415,-1775
30,-1433,-18069,1898,-4548,1253,-1805
40,-906,-17653,2711,-3982,390,-1301
50,-418,-16467,3647,-2912,183,-399
60,-249,-16422,4036,-2520,-138,-177
70,-57,-16362,4138,-2360,-487,233
80,-649,-15709,3917,-2993,-309,1107
90,-1017,-15313,2866,-3541,-870,1476
100,-1283,-15538,1612,-4237,-1738,1685
110,-1140,-16065,354,-5050,-1973,1853
120,1272,-18230,-1194,-6328,474,1698
130,3336,-19229,-2966,-6071,1917,1223
140,4147,-19188,-5142,-5568,2120,192
150,6676,-21039,-1564,-4589,-2517,-1967
160,6791,-22428,1544,-2680,-4682,-2943
170,5222,-23574,4740,-848,-5474,-3125
180,4019,-22207,5874,218,-3276,-2112
190,3242,-19654,6626,-922,5869,-1229
200,2697,-19077,6268,-413,8481,-1432
210,2409,-18110,6180,900,9192,-1614
220,1195,-15795,4915,4169,8352,-2423
230,591,-14367,4333,5674,7154,-2742
240,682,-13298,4479,7431,6255,-2811
250,609,-9641,5560,12797,4752,-2896
260,740,-7334,6002,15958,3795,-2855
270,83,-6128,6630,18654,2286,-2971
280,231,-6306,10889,20236,-327,-3212
290,3721,-11300,12701,19125,-4522,-4723
300,6006,-17254,7981,17424,-2032,-5515
310,3999,-22731,3900,14008,2845,-5248
320,-3761,-27453,-7237,10633,8438,-1390
330,-5870,-29587,-5149,12425,4523,201
340,-4711,-31234,1304,17187,-1309,591
350,807,-31519,11783,25280,-8045,-20
360,3462,-30131,12890,22491,-11131,1259
370,9590,-29198,11662,17962,-11213,3294
380,16008,-27490,9038,15585,-569,1499
390,14631,-26838,6737,18249,5986,375
400,11874,-25950,3485,20155,7173,-339
410,8105,-26825,3994,20007,3408,-821
420,3071,-31057,7692,17080,-6072,-891
430,3933,-31321,10424,14685,-7695,1308
440,5699,-29254,10474,13733,-6947,3314
450,5360,-19947,7721,12909,-6079,4253
460,7307,-16285,6171,12005,-6458,4322
470,7268,-14283,5338,8763,-4975,4587
480,6041,-9780,1323,3918,-6329,4287
490,5056,-6914,583,2363,-7781,3413
500,4357,-3704,515,1422,-8049,2432
510,3538,1439,52,-1390,-4756,2303
520,4326,4027,-409,-3839,-2720,2357
530,5520,7222,-51,-6410,-1439,1620
540,6671,9574,32,-8224,-765,-393
550,875,10448,-831,-10710,2127,-2809
560,-3312,7887,-613,-11696,2555,-2456
570,-5688,3769,-349,-12256,987,-1732
580,-4236,-3321,2544,-12112,-3931,-891
590,-2371,-5823,5842,-11147,-4782,-538
600,-2257,-8263,10871,-9276,-4662,-138
610,-3505,-13458,18832,-854,-3496,1431
620,-4351,-10908,15194,2982,849,2488
630,-4132,-7862,11890,3843,9003,4115
640,1255,-4460,1159,4625,16292,7777
650,11516,-3918,-18559,763,18337,7864
660,18742,-8086,-16966,-8755,14231,5249
670,21493,-14652,-5824,-8563,9767,2103
680,14367,-31223,15216,7034,-6608,-1689
690,2275,-31381,37,2557,-5189,-2910
700,-4137,-26536,-19166,-27426,24204,-239
710,-2213,-22234,-20042,-26309,24026,223
720,4477,-22735,-13541,-21593,15733,1434
730,-1865,-32764,21364,-15605,-1816,-7440
740,-2000,-32764,11546,-6570,-11157,-10660
750,-224,-32764,517,-8714,-11206,-10883
760,3827,-30359,613,-20742,-11178,-6288
770,3505,-31880,5264,-19283,-10159,-5793
780,483,-32764,8632,-17945,-10788,-5469
790,-4302,-32764,10173,-18892,-8309,-2766
800,-5149,-29342,9663,-17157,-9056,-2787
810,-4843,-25386,10313,-14582,-12853,-3073
820,-2130,-21825,10570,-11757,-17234,-2997
830,3679,-15289,9445,-9239,-16032,-715
840,5539,-11370,9136,-8690,-13691,487
850,7169,-8922,6932,-7634,-13805,317
860,5858,-4803,9291,-7960,-8036,-1549
870,4688,-1464,10719,-6912,-2185,-1374
880,433,800,8139,-5713,1057,-1176
890,-6521,-4261,5031,-5867,9640,297
900,-8037,-5664,4717,-5544,16008,1734
910,-6697,-5241,8035,-4733,20425,3948
920,2224,-3259,12249,-2056,20365,5708
930,8679,-4237,5056,23694,-11133,-626
940,9471,-6449,5393,27539,-13276,-3502
950,9750,-24958,-579,31771,-13129,-9076
960,11267,-32721,3280,28463,-5529,-10353
970,11660,-32764,6691,24922,6681,-8540
980,13348,-32764,3586,25083,15504,-3925
990,8604,-32764,1433,24934,11623,-5170
1000,2941,-32764,233,25208,7064,-5934
1010,5244,-32764,1601,26167,3707,-3514
1020,9994,-32764,4010,27724,5474,368
1030,11105,-32764,6285,24848,2007,956
1040,7177,-32764,8478,20452,-1449,736
1050,2203,-32764,9838,15234,-4241,3639
1060,1168,-31081,9573,14389,-5490,4134
1070,1221,-26545,7840,14219,-8306,4303
1080,517,-23829,5166,14602,-12041,4108
1090,1058,-15019,453,12600,-14956,4844
1100,2452,-9862,-1708,10372,-15881,5838
1110,5691,-4658,-1997,8398,-16570,6039
1120,9343,9192,-2900,5084,-11100,5624
1130,9242,14845,-4157,1100,-5980,4177
1140,9163,18806,-6013,-3858,-1126,2928
1150,6504,20742,-7843,-9096,3298,1409
1160,1059,18792,-10476,-16953,8325,-1807
1170,-1361,15633,-9175,-20045,8605,-3028
1180,-2617,4920,-4074,-22080,5468,-3316
1190,-1601,-1412,-823,-21521,3743,-2884
1200,-839,-6961,3973,-20528,2431,-1660
1210,874,-11573,10268,-18307,1480,-128
1220,1240,-27029,30519,-8896,2579,947
1230,-1046,-32764,32764,-277,-2030,486
1240,-6262,-30291,32764,12483,-9108,-619
1250,-4118,-12855,18698,25524,15511,4866
1260,-3314,-1681,-16488,25569,20445,6383
1270,7660,2705,-32748,889,25661,6990
1280,25347,-7595,-29391,-20475,27729,5937
1290,27082,-28727,-3306,1332,-5661,-3148
1300,12249,-29633,13954,11163,-19650,-6946
1310,-2190,-22850,16098,13590,-15174,-7300
1320,-5945,-18450,-19191,-12701,6375,-1221
1330,-7932,-17165,-32494,-21675,20299,740
1340,2414,-20416,-25747,-25761,25961,4039
1350,5343,-32764,31313,-30696,20714,2091
1360,-464,-32764,20514,-15663,-10749,-11146
1370,-3670,-32764,-6828,-12220,-16236,-10992
1380,491,-32764,2336,-28775,-1290,-1737
1390,1474,-32269,9688,-25966,-3889,-1457
1400,-1929,-32764,7240,-20986,-12147,-3044
1410,-2167,-32187,8017,-20894,-18278,-2069
1420,-1483,-30110,8200,-18468,-16662,-1775
1430,973,-25436,9521,-15267,-18444,-1331
1440,5407,-17567,10859,-12085,-21338,-1271
1450,9628,-12160,10398,-7693,-19240,559
1460,8853,-8736,8460,-7474,-16300,814
1470,7963,-7474,6966,-8001,-15912,211
1480,5376,-650,10867,-9565,-5370,-300
1490,3879,2447,9459,-9401,2248,-383
1500,-1123,77,5854,-9795,7527,-1007
1510,-7735,-5684,4653,-10762,18172,769
1520,-9016,-5298,8581,-9308,22784,3372
1530,-3369,-5781,15617,-5472,28151,6662
1540,162,-4160,13968,1196,28921,7404
1550,4418,-1759,5627,12687,252,3528
1560,6133,-2687,5381,16711,-7142,1619
1570,8120,-4468,4538,21755,-13148,-762
1580,9099,-13291,2028,30078,-23003,-5587
1590,9985,-23165,-1409,30737,-22144,-7296
1600,14040,-32030,2124,27737,-15146,-7822
1610,17055,-32764,4191,23359,13914,-1756
1620,17010,-32764,4429,22180,19622,125
1630,12947,-32764,2699,20897,22484,-1879
1640,2172,-32764,448,18149,28066,-2683
1650,7231,-32764,1916,22093,24585,-156
1660,9413,-32764,2596,26562,19604,-59
1670,6894,-32764,4058,25118,3713,-1251
1680,6584,-32764,5923,20996,-592,566
1690,5056,-32764,3185,17950,-1340,2411
1700,6104,-32764,4328,15226,-4419,4113
1710,4537,-25224,3886,13632,-8781,4111
1720,1805,-21400,1881,13653,-11301,3125
1730,-575,-19429,332,13789,-14195,3312
1740,2635,-8659,-35,13658,-16605,6117
1750,4098,-1490,-1473,12060,-14986,5218
1760,6008,4989,-2974,7453,-12242,3939
1770,6264,9874,-3428,1744,-8669,3073
1780,6314,19394,-6160,-7376,606,1701
1790,4321,19318,-8135,-11714,4064,281
1800,2666,18030,-9948,-16015,5059,-1194
1810,-1259,14614,-7116,-23164,5216,-4098
1820,-3090,10689,-4903,-23881,4612,-4163
1830,-2005,-32764,32764,-11196,3335,293
1840,-5154,-32764,32764,2831,-3075,-1067
1850,-8128,-16582,24892,18479,-6472,-123
1860,-7332,-7336,28987,24468,6169,7793
1870,-3433,4745,-1307,29561,13514,8921
1880,1617,14084,-32748,15317,16025,7106
1890,32585,-13542,-28224,-24849,21847,5667
1900,32748,-30440,-11948,-7949,5008,3737
1910,32748,-32764,32764,10220,-18923,-6339
1920,-15637,-23305,-11739,13485,1067,-9461
1930,-10952,-14966,-4752,-21935,19272,406
1940,-4372,-12942,-25218,-27352,29589,7496
1950,-104,-13979,-32142,-21377,32538,8375
1960,7533,-32764,19542,-31749,14201,-1126
1970,3988,-32764,20871,-21596,-9143,-9666
1980,-978,-32764,-4462,-14165,-16257,-14047
1990,-1553,-32764,-2186,-28023,821,-6956
2000,-4047,-32199,4077,-26255,-2748,-4839
2010,-2913,-32764,6858,-20752,-13294,-4519
2020,-4326,-32277,7732,-17328,-19201,-5298
2030,-652,-26796,8122,-16740,-18314,-3778
2040,3158,-22980,9711,-14616,-18289,-3569
2050,6514,-13543,12958,-9666,-18044,-3863
2060,5133,-11223,13683,-8562,-17341,-4559
2070,4981,-11176,13267,-8155,-13765,-3868
2080,1578,-8377,4974,-7279,-9752,-1177
2090,1296,-5652,6548,-9355,-8946,-1261
2100,1694,-2115,9401,-11051,-4684,-1380
2110,-4535,-3090,5466,-11679,441,-791
2120,-6845,-4631,4828,-11327,9898,223
2130,-8247,-5241,8702,-10898,15120,1964
2140,-7164,-5068,11671,-8473,21703,4369
2150,-593,-2479,8280,69,23315,6429
2160,1851,-2180,7249,5136,11631,5193
2170,5275,-1944,5840,10821,1100,4186
2180,9602,-2309,5626,21073,-13622,-797
2190,11216,-5615,6165,26207,-20390,-3767
2200,10761,-12810,3151,30796,-24817,-6433
2210,10011,-22845,-721,32611,-26552,-8331
2220,14738,-32764,940,28235,-9936,-6500
2230,19405,-32764,2925,24907,7529,-1191
2240,21486,-32764,3821,23369,14765,426
2250,12641,-32764,1496,18081,25490,-2631
2260,6702,-32764,-951,16620,32064,-2309
2270,7267,-32764,1,22818,25825,-38
2280,6502,-32764,2815,25305,14911,-796
2290,2596,-32764,6186,24156,5507,-1022
2300,2845,-32764,8132,21367,-1220,318
2310,1963,-32764,3362,16257,-5859,1479
2320,4778,-29497,1934,12915,-8963,3860
2330,4248,-25418,3397,12357,-11896,3774
2340,-175,-20839,1387,12274,-11768,3561
2350,1331,-17287,967,11862,-12586,5467
2360,3427,-11301,-790,11442,-11844,6565
2370,5669,2020,-4205,7284,-9400,4222
2380,6877,7648,-5477,3050,-6583,3581
2390,6045,11618,-8058,-304,-4827,2428
2400,6373,16797,-6548,-3967,-2621,1707
2410,2648,17946,-11277,-12060,3165,-392
2420,1888,17022,-12520,-18627,4847,-1282
2430,-377,14427,-9378,-24001,5371,-3142
2440,-3898,3033,-407,-23438,3903,-2998
2450,-4483,-5562,3970,-21340,2365,-1572
2460,-3514,-13976,13576,-19789,3101,667
2470,-240,-25543,32703,-16006,6390,3203
2480,-9160,-32764,32764,11268,-1425,429
2490,-8766,-24018,32764,24322,-2314,3495
2500,-4915,-999,-1199,31419,4931,5793
2510,-6428,12048,-32748,19297,11711,5509
2520,12679,4400,-32748,-14840,27693,7236
2530,32748,-32704,-7967,-6314,-2783,-183
2540,27103,-32764,32654,9374,-25262,-11985
2550,-1701,-32764,11492,28150,-25280,-17540
2560,-2724,-6355,6067,-7190,804,391
2570,-9460,-7680,-28036,-19567,9445,2001
2580,-6868,-13320,-31901,-28584,29982,4870
2590,6492,-32403,5206,-32764,26263,2802
2600,179,-32764,32279,-28379,5065,-4076
2610,-609,-32764,-163,-16815,-14434,-9327
2620,-4173,-32764,-8958,-23658,-5762,-6012
2630,-3068,-31785,1938,-32678,-1441,-2267
2640,-1676,-30475,3257,-28551,-11680,-2712
2650,-1353,-30921,2265,-19823,-22180,-5413
2660,2455,-28122,5243,-10948,-25101,-7232
2670,7663,-24898,9587,-8800,-23660,-6387
2680,8345,-20580,10377,-7435,-20912,-5171
2690,8169,-16206,10763,-6987,-21115,-3768
2700,4224,-364,11627,-10007,-2137,-1435
2710,-408,-512,9861,-11447,5434,-2022
2720,-5001,-2823,5039,-13211,13630,-1589
2730,-10970,-5273,7299,-13789,19411,793
2740,-5086,-4602,9546,-3966,22457,5748
2750,-2174,-2019,9379,-845,23165,5992
2760,353,-1383,8613,3094,15730,4106
2770,1761,-2218,5233,8730,4815,2452
2780,4639,-1267,3792,17309,-10206,-139
2790,7351,-2676,4942,21658,-15571,-2557
2800,9148,-8222,6379,26553,-19792,-5160
2810,9726,-28646,-2284,31461,-22890,-8079
2820,16196,-32764,410,29731,-18424,-8027
2830,17343,-32764,2171,26877,-4097,-5062
2840,20432,-32764,2308,24693,15816,503
2850,14826,-32764,1156,19858,19904,-2037
2860,10232,-32764,-1462,16548,24890,-3210
2870,6046,-32764,-3213,15556,26812,-3345
2880,13171,-32764,2903,22992,19844,-2346
2890,11893,-32764,4975,26789,17118,-2935
2900,7303,-32764,2714,27626,9038,-2917
2910,4226,-32764,5673,23414,-1155,-1359
2920,5253,-31025,4570,13011,-1416,2876
2930,5178,-26198,3022,9945,-2138,4156
2940,1757,-17232,60,8596,-3787,2538
2950,-805,-15638,-2634,9486,-5418,2331
2960,-1491,-13240,-1518,9567,-8109,3482
2970,760,-8165,-1990,9643,-8819,4215
2980,4611,4840,-3361,5320,-8451,1897
2990,5760,11480,-3201,888,-6327,1160
3000,4729,14498,-2824,-3010,-3519,178
3010,790,18299,-7414,-10260,459,-251
3020,-493,16918,-10278,-16676,1684,-1021
3030,-2250,14428,-8503,-22885,1434,-2129
3040,-5341,2865,108,-23869,-2453,-3371
3050,-6663,-4835,4662,-21433,-3353,-2389
3060,-6002,-14221,13285,-19264,-1728,-147
3070,-2293,-27310,26662,-15402,2041,2211
3080,-5030,-32764,32764,14072,-2270,3
3090,-7375,-25126,31856,29906,447,3678
3100,-7784,-9300,24976,32368,5607,8477
3110,-4926,15073,-32539,26416,7832,7359
3120,291,19320,-32748,-7369,23528,7861
3130,20276,4071,-32748,-30778,30452,11699
3140,32748,-13756,-20877,-19335,11390,11943
3150,31884,-32764,32764,18374,-29561,-10844
3160,3009,-32764,578,31608,-26766,-24764
3170,-11079,-15653,-9016,-27675,15856,-4046
3180,-6076,-11037,-19641,-25297,29752,6629
3190,-1848,-13798,-22693,-20706,32760,8797
3200,2744,-32764,23632,-27624,15048,492
3210,1791,-32764,4690,-22784,-4561,-5420
3220,-203,-32764,-9193,-24483,-1956,-8432
3230,-2192,-32764,-7603,-29799,9418,-7586
3240,-5801,-32623,2183,-26781,1666,-2795
3250,-4406,-29328,-1178,-22477,-9544,-3506
3260,-5337,-30731,3371,-20878,-18418,-6769
3270,-1179,-29232,6727,-15957,-23540,-6515
3280,4063,-25892,9410,-14369,-21891,-4870
3290,7352,-21862,10701,-12353,-20872,-4510
3300,9772,-17707,12487,-10021,-21677,-5236
3310,9680,-11265,13471,-5993,-20735,-4456
3320,9869,-8425,10896,-5665,-15305,-3352
3330,6099,-7505,6717,-7284,-7167,-2969
3340,-343,-3535,8736,-10561,2229,-2501
3350,-3040,-1322,7541,-11311,5730,-2336
3360,-4727,-2067,5643,-11702,9779,-1515
3370,-9950,-4364,9332,-9337,14526,910
3380,-10526,-4244,11334,-5856,17182,3262
3390,-5795,-4759,9967,-2048,20939,5989
3400,-78,-2057,8431,4467,15945,5470
3410,3448,-967,7641,9464,6560,4164
3420,5657,-983,7771,15122,-177,2683
3430,8997,-5988,6141,27385,-16728,-2751
3440,8535,-12504,3458,31881,-24582,-5963
3450,7303,-22691,662,32765,-28554,-8125
3460,8746,-31662,-564,32333,-25783,-8411
3470,18157,-32764,6842,25942,2350,-1638
3480,19761,-32764,7140,23729,12216,193
3490,15160,-32764,4405,22710,16887,-1661
3500,3946,-32764,-462,21709,30151,-1473
3510,3724,-32764,1913,21387,29075,262
3520,5331,-32764,4794,21878,20573,1370
3530,4131,-32764,3043,23285,10596,1164
3540,4170,-32764,7154,21439,-2023,1440
3550,3596,-32764,3394,21467,-7270,1884
3560,5895,-31682,3730,19136,-13266,3561
3570,2371,-23190,3620,18024,-16281,2257
3580,242,-20253,2646,16675,-15697,3436
3590,3201,3858,-2093,10580,-16508,3395
3600,8980,10603,-4122,2991,-10758,3196
3610,10183,15405,-6479,66,-6729,323
3620,8764,18645,-7621,-4253,-2474,-743
3630,678,20340,-13384,-15460,4792,-256
3640,1719,18611,-12050,-22301,7139,-389
3650,552,13881,-8808,-26649,9139,-1619
3660,-5850,-1426,-1147,-27306,8157,-1088
3670,-6554,-8993,4919,-26139,7006,1053
3680,-4628,-16655,14992,-23870,7337,2531
3690,435,-32764,32764,-7879,6507,2294
3700,-5769,-32764,32764,10399,-4751,-253
3710,-7100,-27484,32764,26757,-9274,829
3720,-3416,3819,-4917,32350,11126,6675
3730,1688,16556,-32748,15968,17298,5954
3740,14406,8355,-32748,-19681,30310,6107
3750,32748,-12091,-29361,-23070,27739,7712
3760,32544,-32764,32764,7690,-27158,-5905
3770,1344,-32764,19518,18709,-24161,-16667
3780,-14762,-23234,-2099,6289,12698,-12465
3790,-10591,-15226,-32660,-22704,21757,1914
3800,-9455,-14086,-32748,-22267,30199,3096
3810,1136,-21367,-22384,-29138,25637,2483
3820,-1837,-32764,32741,-27945,4836,-9657
3830,-2189,-32764,8268,-14776,-17143,-14799
3840,-5407,-32764,-6888,-17497,-16819,-14700
3850,-618,-30557,-110,-25382,-12916,-5037
3860,1559,-30704,6843,-22185,-20571,-4567
3870,1022,-30355,8495,-18019,-26805,-5135
3880,3917,-27898,10815,-16690,-21492,-3450
3890,5022,-22018,10922,-15728,-17301,-2007
3900,5561,-17662,13081,-13806,-17621,-1884
3910,7784,-15499,16588,-11868,-18026,-1816
3920,6005,-9566,10430,-7944,-11598,-348
3930,3406,-8027,7323,-8427,-9068,-499
3940,973,-6303,5540,-9154,-8142,-1161
3950,1929,-2350,6434,-9990,-6135,-822
3960,-653,782,8385,-11292,4157,-629
3970,-4507,-1811,7391,-10901,9265,-465
3980,-7827,-3502,9193,-10053,13603,483
3990,-5544,-3997,12595,-3144,20675,5724
4000,-1730,-1763,7684,770,24100,7655
4010,988,474,5763,3289,19988,6675
4020,5539,-1634,6995,12381,1796,2371
4030,8954,-2675,6179,19096,-6630,373
4040,8299,-13610,-1289,25542,-16083,-3075
4050,5622,-25475,-2210,32131,-31045,-7047
4060,5225,-32764,-717,32048,-30271,-6433
4070,10038,-32764,3911,30603,-19483,-3509
4080,20008,-32764,6404,28886,8364,1643
4090,19249,-32764,6423,25424,13860,-52
4100,15729,-32764,4764,20935,22250,-1408
4110,7512,-32764,496,18860,32488,-1096
4120,6160,-32764,2781,21991,29526,-438
4130,5320,-32764,5929,25180,23066,-579
4140,3960,-32764,5758,26850,16933,-936
4150,-3909,-32764,-679,20416,-4485,457
4160,2185,-32764,5956,17089,-13997,3684
4170,5578,-32737,2995,17476,-11809,5244
4180,1427,-22429,1473,18261,-16270,4564
4190,-851,-19829,2045,17301,-17162,5858
4200,-1106,-16112,1102,17113,-18473,7098
4210,429,-1636,-3028,16638,-19747,6998
4220,3607,4305,-4587,9736,-19504,4804
4230,8678,11657,-4620,4173,-16062,4514
4240,8710,16359,-6339,-296,-10786,2437
4250,5078,18877,-9178,-10518,53,1583
4260,3138,18852,-11834,-16425,3654,1449
4270,1476,15272,-8524,-26627,9052,-1049
4280,-569,11229,-6411,-28009,10799,-1945
4290,-4303,3884,-2861,-27979,10702,-1930
4300,-3500,-11398,6212,-24415,6895,1527
4310,-1570,-20319,19406,-21088,8071,2520
4320,470,-32696,32764,-12939,7882,2697
4330,-8356,-32764,32764,19935,-16119,-1913
4340,-6022,-20831,32721,27908,-10612,1444
4350,-6627,-9134,25963,30176,3374,4737
4360,-1334,6484,-18237,29739,13985,6143
4370,22262,-3220,-32748,-25780,32267,6917
4380,32748,-21908,-25597,-16839,18405,6799
4390,32748,-32764,-3656,-1054,-8013,1168
4400,-4031,-28202,16837,16850,-23341,-14476
4410,-10830,-17349,3646,6704,6790,-7762
4420,-7660,-15388,-14168,-16468,12796,-2222
4430,-9652,-15670,-29984,-28313,25271,-28
4440,4831,-24302,-20474,-30963,31100,4639
4450,4962,-32306,-322,-32595,20884,-1449
4460,-2448,-32764,27889,-28461,2235,-8451
4470,-2549,-31377,5111,-23307,-15758,-3556
4480,-3935,-32454,7458,-17757,-22291,-5564
4490,319,-29032,9284,-15850,-18037,-3381
4500,3787,-23401,10689,-16665,-15642,-1064
4510,7910,-19972,13272,-15614,-17075,-1584
4520,8243,-14202,15465,-12878,-18368,-3358
4530,8557,-10166,11261,-8521,-11443,-1905
4540,5599,-8650,6159,-8171,-7288,-2089
4550,3503,-6915,2944,-9290,-5926,-1971
4560,108,347,6083,-10960,-5258,-3044
4570,-1463,2361,5968,-11200,-2436,-2679
4580,-5382,1331,6572,-11853,4028,-2340
4590,-10452,-6157,10621,-10538,22673,-300
4600,-10895,-6744,13772,-7782,30106,3120
4610,-6852,-5325,13006,-3478,32141,7233
4620,-1330,-3105,9812,924,23692,8428
4630,9793,-1716,9150,12169,-2673,3241
4640,11163,-3888,8862,20530,-12077,-398
4650,11818,-6604,5407,28381,-24011,-4208
4660,7818,-28151,-4838,32765,-32766,-9363
4670,9459,-32764,-2128,32083,-30306,-9849
4680,10324,-32764,1378,29162,-14121,-7355
4690,19295,-32764,6024,29270,8945,-1345
4700,16034,-32764,6101,28433,11374,-4112
4710,10913,-32764,3048,24744,18438,-5629
4720,4932,-32764,-373,23941,26589,-3778
4730,6101,-32764,1496,28233,20933,-3411
4740,7810,-32764,2939,31082,14377,-3754
4750,7875,-32764,1063,23895,8076,-770
4760,7893,-31025,3958,18408,7949,360
4770,2418,-32764,-1900,15861,3226,1126
4780,3176,-32649,3711,13166,-4341,3527
4790,-547,-23353,-6,14567,-4718,5041
4800,-4106,-20323,-1107,15759,-11845,5659
4810,-2846,-15569,-753,16372,-14095,7481
4820,774,-2875,-3548,17551,-16275,5593
4830,5653,6388,-4145,14907,-16883,4409
4840,6522,13677,-5465,8560,-13357,3320
4850,7348,20206,-5200,1773,-10243,2081
4860,2082,24197,-12532,-10751,254,435
4870,1238,21664,-13069,-17988,3715,176
4880,-427,17985,-10732,-22965,5899,-697
4890,-2122,9489,-5059,-25150,7996,-1185
4900,-1081,3414,-2533,-24493,7785,-1279
4910,-884,-2737,1007,-23893,8235,-879
4920,390,-15123,16331,-20262,8129,700
4930,1532,-27961,31514,-14357,7996,1140
4940,1733,-32764,32764,-2628,630,725
4950,-8090,-25556,32764,26841,-18355,612
4960,-9938,-13556,31488,29548,-3502,4844
4970,-4313,904,-11158,30770,10681,7104
4980,-3079,7759,-32748,6505,18405,6168
4990,32747,-20396,-28491,-16513,21800,11506
5000,32748,-32764,-4279,-312,-7352,3676
5010,16905,-32764,-738,9342,-27400,-8322
5020,-9055,-15754,4071,2585,3837,-6201
5030,-4850,-12532,-13935,-6979,12323,-561
5040,-3744,-14801,-17656,-15982,22051,1831
5050,10092,-30455,708,-26453,19160,1460
5060,6269,-32764,5125,-26767,3256,-4290
5070,3200,-32764,-1449,-24810,-5126,-8294
5080,-1629,-32764,-1748,-25206,765,-7136
5090,-4029,-32764,1039,-25075,2756,-5738
5100,-3486,-30724,-2481,-23321,-5873,-5115
5110,-5978,-31281,80,-23022,-12706,-6171
5120,-5478,-32764,8199,-18170,-18973,-6706
5130,-2839,-31960,8137,-16881,-18302,-5923
5140,5712,-23243,11311,-14244,-17526,-3757
5150,5556,-19403,9898,-10614,-20170,-4578
5160,7778,-14392,10485,-8190,-22312,-3654
5170,11041,-7765,10887,-7257,-15194,-1852
5180,8019,-6857,8083,-9059,-7499,-2625
5190,5098,-5874,7898,-10759,-646,-2151
5200,2412,-1615,9019,-12197,4732,-1806
5210,-6174,-357,4375,-14771,12235,-3235
5220,-8365,-2536,3010,-13686,12468,-2573
5230,-10623,-4050,7147,-11257,11379,-1428
5240,-12570,-5148,12346,-7242,12605,620
5250,-1681,-3779,8510,32,21310,5655
5260,-528,-2970,9172,2438,15969,3733
5270,3090,-2350,8622,7383,7309,2765
5280,10191,-3686,8614,13529,-1157,1750
5290,9414,-9767,3892,25114,-16227,-4479
5300,5175,-22686,-2121,29433,-24038,-6895
5310,4754,-31008,-4683,31401,-29774,-6687
5320,11836,-32764,1256,29959,-13423,-1899
5330,17239,-32764,4147,28650,783,545
5340,18840,-32764,6800,25309,8282,-246
5350,12787,-32764,3264,17181,26666,-3774
5360,6824,-32764,128,26328,17924,-623
5370,4627,-32764,2421,23774,8263,667
5380,4365,-32764,3815,15601,1442,3609
5390,1066,-32764,-1308,14923,-2790,3404
5400,3448,-27699,1178,14239,-10034,4802
5410,-437,-19702,-939,16347,-15627,3974
5420,-1951,-17019,-1221,16618,-17677,4882
5430,-1487,-12550,-539,16895,-18714,5671
5440,1911,-84,-3092,15393,-16256,3533
5450,4530,6042,-5296,11022,-14287,3198
5460,7355,12731,-4913,5021,-11705,3004
5470,5781,17634,-5347,-133,-8188,1223
5480,1976,19646,-10877,-9756,-987,703
5490,2499,19361,-12807,-16643,1776,692
5500,1811,17727,-10389,-22651,4196,-547
5510,-2473,7590,-2440,-24884,8084,-936
5520,-3961,613,1602,-23194,6852,148
5530,-797,-12677,14114,-19189,6710,2652
5540,-1030,-23563,30960,-15601,9001,3161
5550,-136,-32764,32764,-5355,5047,2697
5560,-7749,-29688,32764,24310,-12616,-81
5570,-5978,-17759,31703,27376,-2496,3426
5580,9602,919,-32748,12584,20775,5613
5590,24916,-12288,-32748,-13299,30199,4647
5600,32748,-28505,-26506,-7575,11455,2323
5610,7235,-19615,13208,5808,-20600,-7509
5620,-555,-11676,16869,8079,-9177,-4982
5630,-1149,-11537,9585,3165,1219,-1363
5640,-9123,-14041,-32376,-11366,14349,-2177
5650,2428,-25618,-25460,-32762,32451,5740
5660,7404,-30987,-13072,-32766,27281,3518
5670,-3999,-32764,32429,-31210,16096,-3837
5680,-2703,-32764,-12451,-10177,-13719,-11670
5690,-1828,-31641,-14737,-21493,-8746,-10071
5700,-2272,-30119,-5600,-25729,-6851,-7260
5710,-639,-31274,8755,-22310,-13431,-6612
5720,-3345,-32764,7800,-15764,-28080,-7632
5730,-3005,-32764,7935,-18818,-21554,-5224
5740,-967,-30316,9506,-19413,-14646,-2174
5750,4531,-21096,11684,-13037,-17077,-2221
5760,5094,-18166,12161,-10490,-19496,-2553
5770,6612,-15232,10724,-8103,-19766,-1104
5780,4526,-9182,6935,-6057,-18422,-1817
5790,4079,-6098,6695,-7205,-15024,-1676
5800,4729,-1863,7941,-8751,-8323,-1233
5810,3636,2772,9891,-12265,8976,-922
5820,-1827,528,8855,-12638,12870,-1460
5830,-5283,-2260,8386,-11634,14911,-1528
5840,-10225,-4085,9100,-6219,19664,1303
5850,-9408,-2891,8825,-2628,21412,4553
5860,-4603,-2299,8253,243,20552,6361
5870,-967,-3357,7283,3461,15422,5291
5880,7721,-1601,5655,13632,-1734,2188
5890,9354,-3444,8202,19472,-10732,-115
5900,9855,-8262,6342,26396,-19790,-2576
5910,8042,-30270,-3480,32477,-32174,-6916
5920,13175,-32764,-1313,30695,-28341,-6621
5930,15529,-32764,1319,27169,-8332,-3818
5940,20636,-32764,3250,25148,15160,1931
5950,16411,-32764,1996,23628,16855,-1285
5960,8494,-32764,-1121,21266,24205,-2875
5970,7060,-32764,315,22165,29195,-1402
5980,10200,-32764,2901,27545,19604,-1582
5990,11214,-32764,7517,26605,12246,-3015
6000,8543,-32764,6939,23425,10299,-2925
6010,3202,-32764,1659,15262,9453,1059
6020,-856,-32764,-382,13434,1610,2529
6030,1153,-31771,420,12455,-7756,4831
6040,-8,-18577,-2738,17179,-10756,2124
6050,-2221,-15690,-4877,17553,-13764,2726
6060,-1771,-11817,-3864,16690,-16887,4619
6070,1655,-1092,-5360,15406,-16560,2924
6080,5350,5380,-5750,11694,-15732,1833
6090,5630,11380,-6261,6841,-13659,579
6100,1434,23816,-8203,-3301,-5924,-337
6110,-163,23903,-13430,-10940,-1659,566
6120,1276,21163,-13055,-20466,2090,1155
6130,821,17325,-9347,-27047,5064,-54
6140,-3276,6593,-1593,-29276,9074,-639
6150,-5014,-554,1763,-27758,8832,370
6160,-5615,-7529,5904,-25841,8560,1589
6170,-2754,-28775,30361,-18612,12098,2215
6180,-637,-32764,32764,-6398,7877,1035
6190,-5649,-32764,32764,13752,-6823,-1300
6200,-5273,-27314,32002,27434,-8409,882
6210,-1888,-321,-4078,30729,8075,6960
6220,4500,8902,-32748,12606,14950,6325
6230,17714,-571,-32748,-17168,29355,6449
6240,32748,-32764,-8790,-611,-4571,2532
6250,-6643,-12576,-17368,-10972,22893,-2364
6260,438,-19689,-24278,-23490,31092,1149
6270,5837,-27949,-13974,-26800,24907,414
6280,-690,-32764,17407,-29233,14309,-3664
6290,-1705,-32764,-4016,-21186,-9004,-7672
6300,-671,-32764,-8950,-24147,-299,-6971
6310,-3152,-31706,-4314,-25279,3886,-6338
6320,-1549,-29804,3717,-19643,-15348,-6217
6330,-2408,-31604,7623,-16946,-24436,-8046
6340,-3215,-32382,8162,-15375,-23137,-8118
6350,1404,-25598,10307,-15725,-15560,-3754
6360,4919,-21194,11735,-13683,-15291,-3280
6370,6250,-17292,13941,-10638,-16654,-4501
6380,4437,-15005,15041,-7950,-18101,-4796
6390,6070,-10017,11874,-5940,-14465,-2699
6400,3563,-8794,5925,-7562,-6747,-2475
6410,1434,-6452,4543,-10045,-1543,-1923
6420,301,1161,6046,-11581,2868,-2130
6430,-4125,-1113,6457,-10930,6518,-2601
6440,-8021,-4114,6460,-9184,9208,-2288
6450,-9528,-4995,10087,-7642,11692,-801
6460,-7628,-4444,10606,-2416,20854,3992
6470,-2950,-3951,9252,31,21330,5973
6480,4680,-404,6836,7000,8734,4238
6490,6562,-769,5440,13083,-2031,1974
6500,8466,-3489,7541,19126,-12658,-96
6510,5837,-18601,1485,25496,-21012,-4962
6520,9267,-29327,-1632,31686,-30189,-5350
6530,13640,-32764,-630,29074,-22556,-5049
6540,13508,-32764,1653,26153,-5293,-3071
6550,17036,-32764,5261,23512,8643,-157
6560,13380,-32764,4200,21637,14655,-2278
6570,9579,-32764,194,20304,25078,-2811
6580,7241,-32764,1558,21931,31245,-1334
6590,7406,-32764,4112,24214,23953,-977
6600,7162,-32764,4667,25116,14884,-1109
6610,3897,-32764,3554,19998,3604,2022
6620,1855,-32764,1181,17899,1179,3143
6630,1184,-32764,259,16105,-4208,3502
6640,4359,-30119,2511,14332,-11437,4881
6650,989,-20283,-295,16064,-13765,2276
6660,-2546,-18381,-1596,15718,-16880,3072
6670,-1403,-14880,180,15126,-19231,4818
6680,-456,-10192,-1099,15523,-18761,4516
6690,4008,1119,-3790,11486,-16177,3223
6700,6483,7834,-5251,7730,-13261,3011
6710,9162,20416,-5042,-1486,-6698,-308
6720,4374,22498,-8099,-5829,-3067,-1208
6730,307,22381,-13203,-12390,745,-125
6740,724,17309,-10102,-26948,4536,-965
6750,-1707,10827,-6223,-28873,5702,-2190
6760,-5383,3191,-1398,-28477,5332,-1660
6770,-4755,-11690,11119,-24761,6155,1674
6780,-2219,-21684,25930,-21145,9924,2859
6790,436,-32764,32764,-12223,12887,3333
6800,-9750,-32764,32764,25719,-11982,-2250
6810,-6813,-18004,29695,30667,-9021,1857
6820,-6351,-7410,25009,30974,-2996,3892
6830,715,4844,-22050,28765,7928,5342
6840,28444,-12593,-32748,-21651,30908,5945
6850,32748,-29426,-27722,-7384,10436,3582
6860,32746,-32764,-4088,3521,-15553,-1736
6870,-3558,-16756,12707,5833,-5438,-7144
6880,-4912,-13932,1055,747,5939,-3683
6890,-7248,-16510,-27927,-14903,12058,-2897
6900,-4687,-18685,-32748,-23442,28634,454
6910,9513,-28303,-15121,-30753,27421,-290
6920,1295,-32764,27998,-31784,16638,-6630
6930,-1377,-32764,-6873,-14628,-16291,-10915
6940,-1639,-32521,-12065,-21983,-4624,-8151
6950,-3120,-31680,-7688,-25845,4077,-5796
6960,-4379,-30922,4139,-26465,-340,-4739
6970,-3632,-32342,7744,-19933,-24074,-5911
6980,-4050,-32194,7813,-19060,-21767,-5620
6990,-932,-29695,9076,-18362,-17562,-4081
7000,5826,-18934,12191,-13934,-16571,-2724
7010,5839,-16212,13023,-11558,-17616,-3601
7020,6090,-13765,12300,-8790,-18531,-3417
7030,6214,-10790,10123,-6832,-17721,-2040
7040,3798,-7315,6857,-7401,-13984,-2096
7050,2846,-3850,7083,-9409,-9692,-1924
7060,3165,194,8389,-11903,-2114,-1803
7070,-2441,609,8410,-12482,11202,-1928
7080,-5638,-1961,8094,-10197,11523,-2059
7090,-8472,-5034,12412,-8201,12481,-1137
7100,-8246,-5910,11335,-957,27062,6105
7110,-5759,-4054,4717,647,30277,8604
7120,9564,-12974,2412,30319,-25336,-4244
7130,5146,-25620,-3777,32728,-31973,-7089
7140,5904,-32764,-3181,32719,-32010,-6736
7150,15646,-32764,4785,31899,-5041,-393
7160,20148,-32764,5259,30521,7578,964
7170,19333,-32764,4415,26564,12142,-1272
7180,16925,-32764,4173,20874,18217,-3107
7190,6590,-32764,-1946,20238,31593,-588
7200,7746,-32764,2188,21885,23537,1418
7210,7795,-32764,5986,24268,16560,1033
7220,3950,-32764,646,22557,13502,2503
7230,1117,-32764,-708,16491,7604,3770
7240,-805,-32764,1777,12745,-2852,4926
7250,2016,-29921,2391,14513,-10697,5171
7260,-574,-19015,-2314,19418,-14987,1576
7270,-3384,-16487,-3157,18692,-17413,3003
7280,-2285,-14144,-1964,17889,-18491,5143
7290,2181,-2215,-4199,17352,-18692,3989
7300,4783,4349,-5138,13856,-17032,2943
7310,6125,10489,-7678,9349,-14736,2467
7320,6118,23277,-7166,2340,-12066,2704
7330,2526,23060,-11599,-8862,-3283,848
7340,1762,20942,-14055,-16646,907,1422
7350,1077,14050,-7938,-27779,7455,-451
7360,-542,9597,-4749,-27537,9050,-1195
7370,-2900,3405,-1721,-25619,8713,-1185
7380,-2780,-10239,6787,-22537,7555,1224
7390,-1823,-18690,20864,-20220,8519,1954
7400,-303,-32672,32764,-12538,8272,2193
7410,-682,-32764,32764,3736,-1023,920
7420,-10992,-24223,32764,32466,-13693,1491
7430,-5740,-6332,8039,32654,3736,6248
7440,-2951,11152,-32748,20085,12442,6569
7450,29225,-8090,-29360,-27343,30501,12294
7460,32748,-32127,-18329,-9156,4203,9881
7470,32748,-32764,9971,5018,-24341,-2379
7480,-11993,-24126,2236,6226,6961,-11264
7490,-10054,-15593,-16331,-9557,17276,-3503
7500,-9784,-12558,-30514,-17926,23589,1644
7510,5934,-24641,-16144,-26147,23018,3992
7520,3145,-32764,16947,-30201,17736,-1428
7530,481,-32764,15347,-25650,1682,-6679
7540,1548,-32764,-6577,-21872,-8810,-8638
7550,1654,-30870,-6259,-26409,3752,-6849
7560,-1297,-27535,-1026,-23749,-930,-7612
7570,-1804,-29318,6748,-16020,-26811,-9585
7580,-3273,-31697,10354,-15437,-24841,-9428
7590,-2328,-31642,10630,-16231,-17119,-7100
7600,156,-21703,11751,-15117,-12328,-3469
7610,1992,-18294,14660,-12611,-14646,-3505
7620,3655,-15194,15798,-10031,-15065,-2753
7630,4253,-12008,14791,-8028,-13897,-2135
7640,4019,-7539,8294,-8048,-9992,-2568
7650,3526,-5759,4941,-9365,-6941,-2846
7660,3981,-2200,5272,-11094,-1329,-2737
7670,-521,1631,8997,-10766,7592,-3691
7680,-5518,-634,9468,-8017,7469,-3858
7690,-10545,-4424,11870,-5890,8464,-2576
7700,-11496,-6371,13149,-3960,12570,487
7710,-6121,-4881,3478,143,23039,5880
7720,-3126,-3923,3442,434,21556,5695
7730,-590,-2494,3930,3275,15762,4836
7740,6710,238,5585,13785,-1644,3476
7750,8729,-3323,7036,20226,-13727,341
7760,8263,-11994,8545,27076,-23320,-2993
7770,6302,-22986,2726,32199,-28879,-4959
7780,12799,-32764,1650,31109,-22437,-3133
7790,15973,-32764,1494,27369,-4417,806
7800,20716,-32764,1010,20350,12086,204
7810,16546,-32764,819,16547,21671,-2562
7820,10173,-32764,-917,16131,31570,-2712
7830,8973,-32764,-525,19357,32761,-845
7840,6242,-32764,6623,22756,21422,-713
7850,-462,-32764,4215,21192,14920,-404
7860,518,-32764,4106,17451,8943,3172
7870,2983,-32764,-45,13862,338,5217
7880,4629,-30377,-1332,13861,-7426,5122
7890,5360,-24822,-544,14349,-14088,4738
7900,-405,-17089,-1928,16132,-19104,2740
7910,-1179,-14734,-1607,17128,-20036,3483
7920,673,-11184,-1743,17175,-19466,4212
7930,1561,-5786,-3104,16088,-18007,3552
7940,6860,8055,-4363,10104,-15590,2566
7950,7221,15302,-5609,4794,-10209,1147
7960,6986,18992,-6251,-1439,-5023,334
7970,675,17759,-9818,-11731,365,433
7980,1777,17167,-13395,-17854,1184,374
7990,2914,15307,-10524,-24472,1696,-823
8000,342,11901,-6124,-27459,3330,-2156
8010,-3668,-30006,32764,-14734,6380,2968
8020,-8193,-32764,32764,19122,-6469,44
8030,-6989,-21817,31102,27777,-2388,2733
8040,-5100,-10112,28396,28779,1019,4726
8050,11730,5822,-32748,6472,15538,3508
8060,27874,-13062,-32748,-17690,28363,3360
8070,32748,-32764,-26257,-11526,13170,1463
8080,32748,-32764,4672,1108,-15465,-4584
8090,-5512,-16457,2843,15901,-5886,-7150
8100,-4312,-6558,-1286,3028,7418,-367
8110,-8254,-9434,-30540,-14066,7781,367
8120,779,-20212,-26353,-31697,32527,5874
8130,7814,-26369,-16183,-32609,32307,3471
8140,2337,-32764,19609,-31938,25529,-3822
8150,-2224,-32764,28113,-20229,4238,-9495
8160,-3154,-31670,-13687,-18244,-10345,-10295
8170,-3509,-29676,-6466,-23878,-4467,-6908
8180,-2750,-29030,6832,-23201,-6940,-5584
8190,-5001,-31248,8482,-16695,-22861,-6225
8200,-5435,-31481,8201,-18464,-18287,-4928
8210,-3985,-29226,7646,-18523,-13165,-3085
8220,3490,-19020,9575,-13207,-13315,-1697
8230,4105,-16152,10241,-10868,-16087,-3091
8240,2594,-15455,10124,-8719,-20489,-3706
8250,6301,-9750,7666,-5731,-19779,-977
8260,4075,-7704,5997,-6423,-15234,-1387
8270,2984,-4904,7490,-7630,-11087,-1226
8280,3549,3386,9356,-8160,-1741,-476
8290,-1166,1863,9300,-10303,5182,-732
8300,-4184,-2697,6708,-9507,11648,-618
8310,-4893,-6504,5938,-8613,16213,-102
8320,-10204,-5841,11031,-5758,26938,3126
8330,828,-3218,11597,3021,24115,8902
8340,6987,-2324,10105,7807,9831,6531
8350,9127,-2773,8020,13544,-4716,3010
8360,11109,-12111,3248,26884,-28520,-3405
8370,9336,-24474,-2374,31629,-32719,-7250
8380,10989,-32764,-4708,32035,-31867,-9182
8390,12318,-32764,-108,29283,-20810,-7868
8400,22420,-32764,4298,27140,7812,-1560
8410,21073,-32764,4208,25049,12916,-3554
8420,13836,-32764,2191,21087,22457,-4790
8430,8192,-32764,-1957,22479,30455,-2268
8440,5306,-32764,269,25633,27055,-2576
8450,5209,-32764,3868,24280,17602,-1144
8460,6997,-32764,400,19455,16490,1986
8470,4901,-32764,-100,13979,15533,3424
8480,-1357,-32764,2042,11196,9454,3176
8490,1875,-28104,2102,13308,-9799,5672
8500,906,-21915,723,16366,-12445,3896
8510,-291,-17092,-665,17378,-12752,3535
8520,-2334,-11045,-2766,17723,-18309,3794
8530,-838,-5928,-3292,18623,-21741,2866
8540,2320,1212,-4627,17244,-20904,2312
8550,8139,15405,-3526,5010,-11580,1187
8560,7749,19603,-4343,-686,-7412,261
8570,3271,20065,-8405,-5887,-3939,-374
8580,-66,19687,-15149,-19997,675,-407
8590,607,17608,-10577,-26136,2637,-1288
8600,-230,13690,-6740,-27416,5364,-2229
8610,-2750,6459,-1603,-26041,6596,-2483
8620,-4206,-8055,7942,-21705,6614,140
8630,-1872,-15255,17661,-19495,8426,1524
8640,-1797,-28351,32764,-14513,11476,2643
8650,468,-32764,32764,-1093,6121,2851
8660,-9603,-28252,32764,31048,-13491,855
8670,-4811,-14297,21571,32669,-3927,4384
8680,13065,624,-32748,-7390,27475,5679
8690,30446,-16863,-30783,-19681,29436,6159
8700,32748,-31950,-19794,-4151,2745,1981
8710,5027,-20890,20164,8824,-24240,-10362
8720,161,-14425,15736,10763,-8031,-7061
8730,-4373,-14797,-18568,-3769,2577,-4957
8740,-10182,-16085,-32748,-21966,21014,-3517
8750,4962,-26743,-22673,-32766,31061,3930
8760,7847,-32338,-12515,-32724,21914,-1433
8770,-2678,-32764,30035,-30555,10652,-8215
8780,-1798,-32764,-10165,-11104,-16401,-11586
8790,-3153,-32709,-13885,-16444,-14903,-9920
8800,-2569,-30675,-3586,-20246,-12121,-6769
8810,2155,-28294,11679,-17465,-22626,-4324
8820,-620,-30472,7833,-17142,-21942,-4607
8830,-1062,-29311,7819,-18184,-15922,-2834
8840,2776,-20628,11378,-14828,-13686,-1009
8850,4706,-17329,13285,-12419,-15710,-1897
8860,3471,-14991,13448,-9774,-17197,-2431
8870,3448,-9840,7981,-7549,-17110,-203
8880,3658,1564,9855,-12358,7671,-1184
8890,-425,1014,9475,-11782,11596,-1790
8900,-6008,-5343,10378,-7925,10309,-974
8910,-8692,-5243,12140,-5308,14539,818
8920,-7236,-3628,10777,-1779,20665,3930
8930,-3154,-3062,7631,816,24204,6163
8940,3351,-2555,8991,5948,13815,5112
8950,8370,-1295,9323,12724,3291,3444
8960,10744,-2463,9043,20191,-8331,322
8970,6957,-20398,-423,31237,-27458,-5955
8980,3937,-32202,-4282,31795,-30042,-7024
8990,4406,-32764,-1338,29798,-25309,-5699
9000,9236,-32764,2210,28519,-11005,-1931
9010,19600,-32764,3719,26806,10805,824
9020,16813,-32764,2327,22286,15430,-1863
9030,11714,-32764,1294,17494,23505,-2717
9040,7278,-32764,1210,20950,31699,-810
9050,5459,-32764,1792,22767,27256,-567
9060,3802,-32764,5782,20757,19820,933
9070,6878,-32764,6842,17785,17494,3473
9080,714,-32764,-2580,13292,7738,4490
9090,-259,-32764,-1547,12494,-5948,4850
9100,2922,-30653,146,13209,-13672,5391
9110,2289,-18615,-2530,17077,-16485,3232
9120,297,-15453,-4122,16890,-18631,3767
9130,1967,-6626,-4245,17692,-20634,4202
9140,3406,-206,-5343,17247,-20562,3018
9150,7341,7706,-5625,12766,-18393,2611
9160,7649,20666,-1887,-1976,-7190,1309
9170,4815,19949,-5490,-6623,-3140,984
9180,965,19064,-10005,-12480,-532,684
9190,1268,18699,-11350,-19630,894,291
9200,458,14527,-5677,-28156,5598,-2385
9210,-1825,8224,-935,-28095,7524,-2965
9220,-4668,382,2294,-26058,7178,-2632
9230,-4111,-13397,13343,-20617,5650,-314
9240,-1753,-25323,28535,-15905,7985,749
9250,-1568,-32764,32764,-4958,5699,465
9260,-8017,-32764,32764,14746,-10469,-1640
9270,-7567,-18203,29736,29456,-7379,3653
9280,295,-8193,117,27550,6015,5816
9290,8533,-3516,-32125,11013,17269,6407
9300,32570,-31418,-27489,-14972,18933,4718
9310,31763,-30794,-15508,1809,-1820,1467
9320,16792,-16663,-4444,8577,-16068,-3794
9330,-564,-4118,-2681,9282,-12267,-4001
9340,-5880,-9349,-26769,-6676,7170,-2985
9350,-5189,-18437,-28180,-27464,26073,-2001
9360,7474,-32764,-11447,-31899,24174,-1994
9370,-1898,-32764,28169,-26964,12001,-7517
9380,-5613,-32764,14621,-16384,-2794,-10439
9390,-3051,-32447,-13501,-15197,-12430,-8999
9400,-4414,-29812,-6823,-17902,-9248,-7179
9410,-1085,-27354,7151,-20142,-12819,-4412
9420,1713,-27198,10539,-19882,-20800,-3379
9430,-1750,-31351,6854,-19989,-18445,-2066
9440,-1150,-28216,7463,-19544,-13744,51
9450,-222,-24545,8001,-17490,-11840,414
9460,5017,-17923,12434,-11743,-17712,-942
9470,6082,-14808,12860,-8887,-20320,-1148
9480,5638,-10964,11658,-7006,-19935,-1288
9490,5593,-7725,9228,-6933,-15606,-1471
9500,4938,-3374,9634,-9012,-2396,-1604
9510,3593,586,8494,-7978,89,-2048
9520,790,2636,6695,-7854,2812,-2406
9530,-6714,-3892,4906,-7514,11618,-1591
9540,-9457,-5748,9455,-6511,15384,-256
9550,-6448,-4862,14222,-226,26873,5340
9560,-2755,-3529,9048,2837,26006,6505
9570,589,-3731,6920,4377,17736,5876
9580,4897,-2837,5575,7477,8683,5156
9590,10161,-4888,6612,19878,-11888,720
9600,10269,-11812,4288,27111,-25879,-3009
9610,9099,-23015,379,31615,-32457,-6105
9620,14319,-32764,600,27926,-21770,-5135
9630,15263,-32764,689,25605,-2440,-1976
9640,19283,-32764,1869,25100,8630,-61
9650,12033,-32764,2211,22139,18177,-4135
9660,8961,-32764,-417,21842,26218,-3434
9670,8547,-32764,830,22712,28029,-2217
9680,7000,-32764,8079,22396,19223,-1914
9690,6021,-32764,6869,21486,15596,-2051
9700,1994,-32764,-3174,19197,13208,-901
9710,1508,-32764,276,14138,6852,1802
9720,1470,-31577,1684,12740,-4503,3914
9730,2677,-26567,156,15020,-9994,3351
9740,190,-21774,-724,16641,-13412,2035
9750,-1862,-16383,-1833,14107,-15948,5832
9760,-55,-12310,-1923,14394,-18374,6175
9770,10062,16690,-4698,3106,-9932,2457
9780,5778,19229,-6434,-7093,-1521,670
9790,1974,18486,-10334,-12151,1686,214
9800,1121,17508,-12157,-18735,4308,-203
9810,897,15317,-9490,-24674,6329,-1204
9820,-4385,4335,-1798,-25483,7039,-2288
9830,-5547,-3670,1552,-23148,5552,-1186
9840,-4731,-10138,7107,-21386,5239,630
9850,357,-31758,32764,-13348,11442,3994
9860,-651,-32764,32764,1724,2668,2636
9870,-9191,-32677,32764,21876,-11357,-239
9880,-6640,-18800,32764,29311,-6764,2134
9890,4743,6573,-25117,24856,16983,6310
9900,13200,6057,-32748,-4023,27320,6454
9910,31043,-11874,-31712,-19832,27074,5724
9920,29076,-32764,10400,2103,-19854,-6898
9930,468,-32764,23216,11004,-22757,-12562
9940,-4913,-21469,9742,11142,4243,-7952
9950,-3498,-17920,-3313,-8016,3816,-4687
9960,-7307,-16759,-32748,-25246,30972,3009
9970,2973,-21257,-24811,-27082,26743,4697
9980,8160,-27549,-12046,-29057,16461,-1192
9990,-5157,-32764,23064,-16622,-15190,-13411
10000,-3266,-32764,-5182,-13371,-20981,-11916
10010,-2572,-27946,-5327,-24477,-9187,-4988
10020,-1986,-28621,8256,-23949,-14386,-4508
10030,-428,-30029,11922,-19206,-23519,-4777
10040,-1512,-31472,8230,-16888,-24825,-4942
10050,2301,-25063,8782,-17458,-17014,-1789
10060,4209,-20687,10502,-14553,-16053,-1776
10070,4308,-17853,12089,-11545,-18104,-1547
10080,7083,-11026,12058,-7739,-20231,-171
10090,6080,-7790,8905,-7533,-16549,-556
10100,3964,-6206,7217,-8257,-11691,-1061
10110,3607,-3333,6952,-8703,-9318,-1456
10120,2181,4368,3773,-9263,-2267,-1372
10130,-290,1515,3732,-9912,5040,-674
10140,-3245,-3482,5072,-9470,11455,-463
10150,-7824,-5856,14339,-5702,24163,3726
10160,-5386,-4892,13959,-1413,31005,7275
10170,-2916,-3067,9541,2070,30272,8763
10180,5872,-1203,9425,4213,19779,5398
10190,9472,-2115,8434,15832,-740,2813
10200,12250,-3006,4809,23099,-12119,-560
10210,6125,-21121,-3611,31770,-29829,-6512
10220,6535,-32353,-2861,32237,-32480,-7650
10230,10886,-32764,2859,30646,-24603,-6237
10240,21242,-32764,5062,27424,12283,1027
10250,21757,-32764,4971,25230,16955,-298
10260,15881,-32764,3033,21217,20094,-2945
10270,5565,-32764,-683,18899,31039,99
10280,7086,-32764,1542,22445,28883,2046
10290,5760,-32764,5769,24450,22803,492
10300,3189,-32764,2785,23222,14832,-1950
10310,2376,-32764,3874,14442,4705,1682
10320,-1048,-32764,1162,11514,549,2914
10330,1886,-32209,2991,12092,-5850,3877
10340,619,-21586,-905,15556,-10645,2145
10350,-2389,-18694,-2886,14399,-12715,2943
10360,-1794,-16271,-1479,12890,-16034,4990
10370,-142,-12049,-1659,13212,-16991,4947
10380,4382,725,-3909,14538,-18401,2348
10390,8416,9770,-5514,11065,-15023,1955
10400,10387,16382,-6683,4335,-9177,981
10410,6967,20365,-7534,-7263,-711,-610
10420,2728,18992,-10537,-12657,2117,-958
10430,2288,17432,-11982,-19498,4547,-1310
10440,-425,11483,-6604,-28612,8503,-3232
10450,-3668,4736,-2474,-28288,7832,-3065
10460,-5467,-3747,253,-25950,5391,-1825
10470,-3334,-18600,12448,-21908,5363,1661
10480,-2783,-31680,30584,-17339,7314,2947
10490,-2034,-32764,32764,-4180,2052,2813
10500,-10615,-32764,32764,19549,-12402,1085
10510,-10971,-11424,26990,30981,-63,8501
10520,-6567,6742,-10006,29513,13962,10933
10530,-973,18096,-32748,7084,22037,10342
10540,32436,-15244,-24932,-22767,29066,11143
10550,32748,-32764,21936,-3858,6743,8289
10560,32748,-32764,18631,18067,-25888,-4851
10570,-4276,-32764,13412,25811,-26444,-18022
10580,-9543,-14047,-7610,-20943,23923,-3935
10590,-7028,-11384,-30541,-23304,31409,4292
10600,-782,-13657,-30803,-21702,32667,6865
10610,105,-32764,12995,-29920,16299,-5737
10620,-7759,-32764,25606,-24481,-5100,-12297
10630,-5398,-32764,-1667,-16851,-16961,-13055
10640,-3527,-28459,7036,-17645,-22964,-6268
10650,-1459,-30178,8122,-17338,-25361,-6539
10660,3644,-24936,8740,-15480,-20832,-3211
10670,4668,-22091,10061,-12521,-21639,-3843
10680,5937,-19000,12830,-9738,-23878,-4146
10690,11697,-11397,12364,-6492,-22609,-2326
10700,7986,-9268,8487,-6144,-16657,-3225
10710,5804,-7449,8124,-7208,-10242,-2774
10720,3213,1307,11227,-8946,-1530,-2585
10730,-705,1175,8571,-9800,5848,-2878
10740,-5501,-2396,4749,-9944,14227,-2628
10750,-8987,-4961,5451,-9130,18062,-1533
10760,-13350,-2950,9735,-4935,20531,3396
10770,-7517,-1214,11623,-1238,24742,7341
10780,-474,-708,11764,2828,23589,7906
10790,5633,-2063,5951,11300,4569,2511
10800,7347,-2963,5602,15929,-5760,1404
10810,10816,-4122,5667,22331,-18204,-419
10820,7979,-20767,-206,32588,-32718,-7140
10830,9303,-30001,-1218,32389,-32366,-7087
10840,11988,-32764,1906,28766,-24225,-5779
10850,18384,-32764,5393,23446,10518,691
10860,17323,-32764,4798,23724,14789,-464
10870,11722,-32764,-1142,22481,17135,-2974
10880,3519,-32764,-2912,21792,28959,-2273
10890,3122,-32764,-494,23077,24022,-946
10900,9016,-32764,5573,23849,13498,-657
10910,8393,-32764,4967,21853,11610,-2815
10920,5115,-32764,2239,18586,7689,-1550
10930,1235,-32764,270,14694,3245,999
10940,4411,-28766,2600,11158,-4863,4962
10950,2211,-22711,380,11851,-6131,3585
10960,436,-18763,-581,12820,-9127,2598
10970,-3199,-16377,-1401,12950,-11976,3630
10980,263,-7317,-1569,13664,-15816,4965
10990,2832,-670,-3185,13426,-16193,3488
11000,6470,7780,-4401,9892,-13191,2605
11010,10190,17873,-4799,-2568,-3456,-131
11020,7880,18977,-6361,-7433,183,-1329
11030,3053,18986,-8873,-12001,3132,-2010
11040,-124,18953,-11000,-17601,5557,-2355
11050,-1463,13457,-7658,-26561,8423,-3982
11060,-4438,6787,-4933,-27091,7463,-4388
11070,-4779,-8931,4497,-24321,3451,-1474
11080,-3156,-15457,13551,-21331,3510,-111
11090,-1966,-26881,27827,-15841,4941,1008
11100,-9460,-32764,32764,14264,-13136,-628
11110,-10488,-14984,31790,28504,564,6186
11120,-5199,-861,-1215,28936,13821,9432
11130,1254,11576,-32748,12955,22765,10199
11140,16569,4859,-32748,-20394,31110,10099
11150,32748,-32704,-16407,-4705,14043,5971
11160,32748,-32764,10948,9596,-17743,-2965
11170,4407,-30442,15707,20420,-31756,-15304
11180,-4001,-13680,-7989,-5429,4098,-6271
11190,-4662,-13125,-30521,-17160,25265,-2345
11200,-3814,-15661,-28748,-22196,32738,-21
11210,2977,-32764,16503,-25348,32528,89
11220,-10415,-32764,23067,-27528,-1579,-8667
11230,-3402,-32764,-6306,-22606,-9613,-8039
11240,-3937,-32764,-14831,-25509,1615,-7903
11250,-9919,-30905,4709,-24745,-1527,-6331
11260,-6845,-27115,1685,-19665,-13730,-6102
11270,-5625,-28630,3774,-18550,-25564,-7676
11280,81,-28714,7193,-16456,-24229,-5220
11290,5017,-25116,9606,-15480,-22018,-2789
11300,9546,-18714,13094,-10637,-19960,-3844
11310,8019,-15939,13243,-8093,-21062,-4083
11320,10642,-12317,12838,-6416,-20266,-2715
11330,4751,-7992,7230,-8073,-7683,-2318
11340,1977,-5834,7095,-10413,-1858,-2616
11350,365,-1134,9184,-11810,3259,-3190
11360,-1046,1578,8995,-11196,5872,-3553
11370,-7436,-2234,7322,-8613,9449,-2641
11380,-10979,-4886,11120,-7332,12279,-1370
11390,-13797,-5757,10984,-4504,16172,1347
11400,-4065,-1865,4596,-122,21577,6679
11410,-508,-1458,6880,1686,19089,5313
11420,1596,-2152,5939,6614,13208,3758
11430,4172,-1136,5268,11983,5478,3245
11440,8952,-4983,9733,22693,-17763,-704
11450,8232,-13970,6486,29529,-27678,-3938
11460,5165,-25972,-185,32648,-32401,-5538
11470,12280,-32764,2307,28257,-24430,-2989
11480,16233,-32764,1693,25941,-2030,776
11490,19955,-32764,971,24378,11812,2391
11500,5943,-32764,2964,23938,30756,1248
11510,4117,-32764,6668,23956,21830,380
11520,966,-32764,5845,22559,13013,-611
11530,-3051,-32764,1461,18191,-2090,1248
11540,-29,-32764,1782,15911,-7078,3489
11550,3761,-32039,3654,15051,-10824,4552
11560,1819,-22007,-732,18063,-19252,2445
11570,-233,-19896,-1368,17873,-20317,2715
11580,-773,-18169,-1754,16299,-19579,4136
11590,-323,-14741,-2012,14592,-19402,5689
11600,2659,273,-2925,13490,-21231,3942
11610,7275,8703,-4300,10317,-16866,3458
11620,9859,14062,-5144,3806,-9435,2700
11630,7105,17791,-5478,-7355,-1242,1309
11640,3936,17317,-7408,-11838,1453,950
11650,3380,16180,-10425,-17522,3582,382
11660,2829,15286,-9780,-23866,5516,-767
11670,-2802,7015,-2681,-27928,6936,-3433
11680,-4831,-885,509,-25794,4824,-3084
11690,-5077,-8367,4486,-23152,2557,-1832
11700,-257,-27133,26967,-15314,6961,2472
11710,3508,-32764,32764,-4013,6104,3201
11720,-4655,-32764,32764,17486,-7835,94
11730,-8185,-11070,32764,32342,-2155,3398
11740,67,2160,-7137,31246,8851,4405
11750,5963,8792,-32748,7886,21242,5151
11760,32748,-29150,-27114,-17391,20457,4401
11770,32748,-32764,-6520,-622,-7334,-3573
11780,10690,-31556,12717,6555,-23911,-10288
11790,-2379,-16159,15200,11735,1790,-4865
11800,-7190,-17031,-24517,-6968,7842,-4594
11810,-7793,-19114,-32748,-25071,26108,-463
11820,850,-22850,-29774,-32316,32736,6832
11830,786,-32764,17276,-32438,23861,-1645
11840,-4410,-32764,29854,-21351,1017,-6800
11850,-2951,-32764,-2206,-9034,-15969,-9996
11860,-881,-29507,-7279,-24825,513,-6956
11870,-1126,-28288,2578,-25198,1196,-5165
11880,-2480,-28177,4638,-19942,-6852,-6062
11890,-4452,-27504,4718,-15960,-15606,-7434
11900,-1652,-25672,7798,-17306,-14461,-6041
11910,-1057,-23400,7216,-16507,-11860,-5089
11920,1672,-19402,10841,-14250,-12857,-4220
11930,1980,-14483,12795,-8949,-13964,-7479
11940,-187,-14704,13089,-8124,-16515,-7610
11950,1506,-11738,11192,-7234,-11973,-2597
11960,963,-8898,7146,-7419,-8740,-1940
11970,1039,-4439,9157,-9601,-4281,-1809
11980,-1221,938,7952,-9738,4811,-2216
11990,-5786,-2019,5259,-8161,8478,-1747
12000,-8254,-4446,4869,-6595,9709,-253
12010,-11279,-4127,8825,-5599,12342,1606
12020,-3762,-3429,10494,-519,26753,7506
12030,638,-2501,10580,2176,24995,7276
12040,2630,-2043,8485,5814,15277,5372
12050,6401,-670,7795,10440,4072,4066
12060,8996,-4770,4442,22429,-14811,-1025
12070,7968,-14151,-395,27778,-24930,-4528
12080,4046,-27505,-2330,30587,-30428,-7018
12090,5747,-32764,4109,30268,-18041,-3017
12100,15346,-32764,5804,28649,-2235,2502
12110,19514,-32764,5967,25491,7569,2620
12120,14398,-32764,2848,16783,18934,-453
12130,12018,-32764,569,17104,28949,179
12140,8039,-32764,474,19877,30370,800
12150,-1031,-32764,5977,19196,11372,621
12160,3778,-32764,9267,17624,10956,3530
12170,-2061,-32764,-4540,16988,16358,4514
12180,680,-32764,1464,11613,-8072,5475
12190,905,-29963,-953,12998,-11536,5444
12200,2145,-24683,-2035,14661,-15811,4842
12210,-263,-17739,-3240,14377,-19566,4848
12220,1159,-13574,-2875,14678,-20387,6177
12230,3137,-8235,-2622,15523,-20506,5917
12240,6573,7267,-5056,12377,-16004,2986
12250,11763,13862,-5166,5949,-11109,2901
12260,12178,18303,-4448,-1376,-4886,1694
12270,9622,19010,-4811,-6730,-1302,810
12280,1859,16070,-8989,-16426,3455,-617
12290,2854,14356,-8060,-21682,4445,-1691
12300,1219,12145,-5072,-24537,5160,-3673
12310,-3001,3084,437,-23043,4165,-4502
12320,-4835,-3828,2798,-21336,3158,-2721
12330,-4753,-9499,7900,-19870,1994,-391
12340,-3305,-31808,32764,-9532,2590,2886
12350,-6349,-32764,32764,5879,-7407,1357
12360,-11704,-31622,32764,21701,-11942,339
12370,16371,1633,-32748,-11506,27414,6780
12380,32748,-32764,-13493,-10374,12140,366
12390,26407,-32764,9177,5848,-18099,-6603
12400,-3170,-29370,7083,19012,-27764,-12040
12410,-998,-9198,-1144,-2073,2195,-1298
12420,-7325,-11727,-32748,-18676,11729,-1218
12430,-4054,-17601,-32748,-29030,29208,2135
12440,8570,-31066,-13856,-31467,30943,-2808
12450,-5395,-32764,32764,-29628,15800,-10364
12460,-5538,-32764,16031,-12400,-16033,-13474
12470,-4817,-30000,-12471,-17531,-13951,-9520
12480,-3369,-28625,-2013,-21347,-7635,-6104
12490,-4000,-28998,9204,-20334,-10398,-5115
12500,-4881,-30956,9043,-17365,-21827,-5284
12510,-3735,-28345,6914,-17708,-18601,-3193
12520,1109,-23663,10199,-16251,-17989,-1805
12530,5892,-17020,13048,-13092,-17791,-3492
12540,4562,-14946,10965,-7514,-18076,-3940
12550,2831,-12620,6989,-5739,-18321,-2620
12560,3759,-10022,4721,-5529,-17959,-1155
12570,3543,-3828,9838,-7509,-12324,-1416
12580,3595,1212,10743,-7176,-8131,-1672
12590,-1930,-228,6736,-7832,5981,-1207
12600,-5060,-3739,6322,-8131,12309,-63
12610,-9033,-5196,9145,-7929,17223,1476
12620,-9727,-4883,11784,-5640,23183,4132
12630,-2581,-3485,11146,689,27449,8281
12640,1842,-2456,6873,4683,16762,6493
12650,4212,-1770,5886,9093,5563,4059
12660,10711,-3035,6540,20585,-14181,188
12670,11141,-7641,3560,26886,-22658,-3619
12680,7699,-19613,-1718,30702,-28427,-6732
12690,9450,-32764,-1235,30856,-31471,-6497
12700,14435,-32764,3885,27634,-11801,-2714
12710,20558,-32764,5949,27267,3854,414
12720,21349,-32764,5255,26886,10234,-951
12730,11909,-32764,-369,21691,24381,-3022
12740,9525,-32764,-3507,21366,31428,-1291
12750,6772,-32764,1662,21203,29573,225
12760,2570,-32764,5079,21349,22087,-909
12770,-626,-32764,2644,18655,18876,1246
12780,-2812,-32764,-494,15154,11312,3715
12790,-522,-28926,1655,14925,-8797,4596
12800,-575,-22123,-1226,17634,-11669,1954
12810,-5285,-16761,-3570,16537,-16972,1702
12820,-4087,-15143,-2858,15327,-18704,3914
12830,-1281,-11598,-2910,15827,-21636,4484
12840,1248,-5564,-3728,16837,-24620,2455
12850,9042,10945,-4093,10378,-18309,1399
12860,10661,16739,-4189,3169,-11704,722
12870,8892,19076,-4897,-3316,-6483,237
12880,4375,18975,-9273,-15445,1753,682
12890,3464,16538,-7599,-21649,5714,-163
12900,690,13672,-5370,-25842,9262,-1092
12910,-2165,9830,-2926,-27559,10674,-1390
12920,-6266,-3028,5276,-26351,9576,643
12930,-5691,-9223,9599,-23880,8390,1776
12940,-4982,-17312,19746,-20711,9220,2390
12950,-4987,-32764,32764,2029,-5316,1615
12960,-10086,-32764,32764,20689,-16809,-748
12970,-10311,-23222,32734,28627,-8181,2506
12980,-4480,-9476,930,30722,7939,7067
12990,20934,-6576,-32738,-13010,29522,8828
13000,32734,-23290,-24146,-13897,24129,6120
13010,17758,-25997,3990,8102,-22913,-4471
13020,1750,-14417,13239,11871,-21002,-7346
13030,-713,-9216,10354,7944,-5852,-4773
13040,-5720,-16116,-32748,-4479,25186,-1848
13050,-134,-22227,-25822,-31623,32288,2372
13060,5091,-28352,-16064,-32710,30236,1495
13070,1134,-32764,4053,-31538,22949,-4319
13080,-4259,-32764,-1565,-11538,-14415,-10093
13090,-2200,-32764,-11002,-13848,-16179,-9827
13100,-2439,-32764,-8442,-17976,-11495,-8695
13110,-2618,-32079,1863,-19078,-12176,-7073
13120,-669,-29704,6193,-16876,-26505,-5141
13130,-679,-31114,6922,-17907,-23173,-4068
13140,-451,-30431,7143,-18931,-14244,-2052
13150,3397,-21925,10139,-17552,-8473,-336
13160,7202,-18656,11031,-14435,-11606,-1619
13170,4993,-17585,12164,-11019,-15536,-3389
13180,6624,-12108,9894,-5557,-16762,-1734
13190,4469,-9217,8515,-6185,-11545,-1683
13200,3606,-6478,8675,-7653,-6043,-1390
13210,2379,1896,11591,-9977,4999,-2010
13220,-12036,-4215,9021,-7865,16591,2261
13230,-7356,-3381,11868,-5296,22049,4444
13240,-1952,-3736,11596,1424,22717,7735
13250,1717,-2542,8468,5867,13586,6590
13260,6716,-2032,9296,10354,2932,5065
13270,13506,-4678,6342,23055,-18758,-205
13280,11656,-13244,1444,28428,-27299,-4126
13290,10070,-24707,-1634,30381,-31929,-6579
13300,12225,-32764,2550,29120,-28791,-7013
13310,15994,-32764,4221,25353,3461,-1040
13320,18480,-32764,4553,24938,13179,-264
13330,14150,-32764,3251,24056,15265,-2963
13340,4649,-32764,-643,21596,26799,-3220
13350,4777,-32764,2259,23078,27187,-996
13360,6217,-32764,4289,24283,19709,94
13370,8708,-32764,5943,19312,10107,2148
13380,9991,-32764,5161,15727,13532,3186
13390,2513,-31913,-1178,14291,14355,1742
13400,-1295,-30835,-3602,14969,1678,491
13410,-1914,-22624,-2123,15641,-10156,-679
13420,-1599,-18522,-1331,15000,-10962,572
13430,-2968,-16275,-2195,13823,-11704,2118
13440,-327,-9388,-3400,14293,-15370,3277
13450,2018,-3414,-4370,14868,-16161,2529
13460,10253,14507,-5489,9260,-12516,1078
13470,10310,20511,-4335,1569,-6699,-601
13480,7059,21986,-5175,-5030,-2374,-1457
13490,2236,19973,-11484,-10650,650,-1036
13500,-232,15188,-8869,-23149,3911,-721
13510,-1250,11859,-5534,-25870,4723,-1453
13520,-2787,7285,-2367,-25810,5007,-1673
13530,-5267,-5324,6217,-22299,5335,315
13540,-4510,-11049,12692,-19457,6266,1661
13550,-4001,-21131,26327,-15237,8334,2701
13560,-6476,-32764,32764,12761,-8304,627
13570,-9971,-30255,32764,27605,-9747,526
13580,-8976,-17392,28097,31404,1135,4850
13590,473,-339,-17238,27770,13941,7573
13600,25460,-8452,-32037,-21936,32095,7417
13610,32748,-27077,-21504,-10484,22118,5619
13620,32748,-32764,10782,3172,-10423,-490
13630,-5297,-18735,5362,12425,-10844,-9068
13640,-6546,-12929,-9699,-2813,6367,-4116
13650,-7702,-14424,-32016,-15650,18508,-1766
13660,3266,-24294,-22622,-25340,29282,2310
13670,1963,-32764,4365,-28920,24122,-1556
13680,-8052,-32764,32764,-25845,8733,-6503
13690,-1256,-32764,-12067,-21122,-7162,-7007
13700,36,-31567,-9469,-24820,2141,-6042
13710,-1653,-29160,2148,-24715,3772,-5642
13720,-448,-27202,3609,-18123,-20118,-7570
13730,-3684,-30311,5458,-18315,-23262,-8785
13740,-2238,-30924,7804,-17698,-19913,-7624
13750,-1278,-27347,8175,-15963,-17056,-6050
13760,4024,-19785,12241,-11455,-19176,-5362
13770,5866,-16803,13526,-9165,-18891,-5266
13780,4972,-13652,13382,-7345,-17727,-4376
13790,5920,-9454,11248,-6559,-13333,-2591
13800,2901,-7813,8978,-7372,-8301,-2467
13810,2431,-2660,9039,-8464,-4485,-1992
13820,2085,1977,7851,-9869,-338,-2368
13830,-6706,-1489,3603,-10636,13167,-1701
13840,-9855,-4149,6152,-9601,15281,-227
13850,-13804,-5342,10035,-7678,18817,1586
13860,-6162,-3294,10962,-1520,28725,7908
13870,2609,-2283,7952,5321,12873,4472
13880,5670,-1833,6207,10369,3367,3151
13890,10302,-3812,8675,22308,-14436,-111
13900,8305,-9835,4155,28694,-23330,-3657
13910,6106,-22302,187,32088,-30444,-6144
13920,6054,-32477,-724,32434,-32065,-6675
13930,14878,-32764,4417,28277,-6668,-1746
13940,19340,-32764,4743,25887,9090,1231
13950,18452,-32764,4357,23367,15146,-219
13960,5231,-32764,1298,19174,30541,-1999
13970,3091,-32764,707,20780,32282,418
13980,3475,-32764,3350,22037,26703,1505
13990,1179,-32764,4813,22531,17603,-83
14000,-1303,-32764,7511,18369,3464,2305
14010,2324,-32764,6247,16842,1542,4255
14020,960,-32764,-220,16515,-2893,4060
14030,4765,-25140,1296,13692,-11867,4555
14040,3043,-21200,832,14539,-14650,3567
14050,750,-18229,287,14334,-16067,4113
14060,63,-13173,-428,13946,-18354,6120
14070,2290,-6711,-1211,14005,-19485,5472
14080,4281,727,-1746,11806,-17410,3977
14090,4257,18052,-8633,-9830,632,-1121
14100,1932,17421,-11309,-15431,3097,-1630
14110,224,12084,-7322,-24427,5656,-3857
14120,-2380,7284,-4033,-24856,5100,-4532
14130,-4636,-92,-617,-23655,3419,-3688
14140,-3782,-13305,9644,-21954,862,-1947
14150,-1200,-21696,22178,-17331,3451,1951
14160,236,-32764,32764,-9390,4991,3985
14170,-5633,-32764,32764,7910,-6465,2610
14180,-10116,-15124,32614,27050,-1551,5229
14190,-4974,-146,-146,30013,13220,7566
14200,1319,13173,-32748,15695,22152,8335
14210,32088,-13580,-25440,-23243,30532,8883
14220,32748,-32764,-3793,-7299,10582,5208
14230,32119,-32764,12183,9128,-22169,-5680
14240,-8371,-32764,11567,18677,-25810,-15790
14250,-3954,-15891,8450,-12280,12830,-2043
14260,-6372,-13417,-29273,-17634,13478,-35
14270,-5309,-13220,-32748,-16774,28639,2478
14280,10055,-27475,-11108,-30084,28416,-852
14290,-1910,-32764,31557,-31184,14345,-9439
14300,-5708,-32764,15992,-18797,-14769,-13784
14310,-6793,-32763,-9112,-21918,-7172,-9709
14320,-4504,-29197,-2204,-23993,-5381,-6291
14330,-3355,-28894,5233,-20486,-12318,-6245
14340,-2841,-28736,8106,-15640,-22768,-7045
14350,-1193,-27062,7571,-16156,-19956,-5331
14360,1675,-23435,9600,-15502,-18372,-3589
14370,5962,-16517,12505,-11594,-18345,-3341
14380,5385,-14403,12570,-9583,-17842,-4344
14390,2729,-13171,10424,-7643,-17668,-4110
14400,4286,-10436,7346,-6825,-16929,-1858
14410,2780,-6023,9217,-9798,-8441,-1767
14420,1687,-1075,9357,-10131,-3419,-2185
14430,901,1199,7467,-10656,2576,-1953
14440,-6723,-3238,5293,-9011,10042,-1380
14450,-10478,-4292,9567,-7667,12823,114
14460,-12682,-3458,10797,-4987,17898,2871
14470,-8588,-3674,9630,-2169,23680,6882
14480,1350,-2119,9009,3410,19902,7110
14490,4077,-2071,7315,9002,7824,4420
14500,7640,-2784,7667,14775,-2052,3018
14510,11877,-8355,6224,27298,-24291,-2506
14520,8185,-19098,535,31882,-31211,-6000
14530,7790,-32764,-243,31298,-30087,-6680
14540,14172,-32764,4032,28875,-14601,-3018
14550,19395,-32764,4548,28138,4742,89
14560,22301,-32764,3970,27209,12030,-344
14570,9730,-32764,1265,20888,24022,-3274
14580,7056,-32764,-135,21180,30158,-1295
14590,6635,-32764,-126,23103,27549,-381
14600,5305,-32764,5204,22001,14422,-3354
14610,-217,-32764,3465,18323,11750,-2545
14620,83,-32764,5641,15245,4106,145
14630,543,-31021,914,16048,-8535,1794
14640,204,-24509,-502,15018,-10303,1760
14650,1532,-18927,-1236,13304,-10501,1859
14660,-607,-15802,-2127,12314,-11530,2155
14670,-2280,-10709,-3094,12113,-15938,3932
14680,150,-6240,-4018,12972,-17397,3773
14690,3892,1535,-5421,12897,-17018,2978
14700,10223,16630,-4372,2509,-10275,1547
14710,8671,20476,-3723,-4135,-4870,1169
14720,5903,20425,-6134,-10038,-490,1101
14730,2094,15578,-7948,-16191,3110,-187
14740,823,13251,-5807,-26549,8631,-1219
14750,-919,9396,-3572,-27945,10096,-1919
14760,-5216,-4310,2384,-26392,9729,-1658
14770,-5344,-10559,6192,-24275,8773,-622
14780,-4344,-18527,15905,-21040,9147,751
14790,-4039,-32764,32764,1240,-2648,556
14800,-10066,-32764,32764,23607,-19506,-1340
14810,-9377,-21138,31489,32220,-11853,2831
14820,-4635,8043,-26502,31197,19313,10593
14830,3386,13233,-32748,-8179,29292,12459
14840,21442,-3262,-29838,-30607,32755,15659
14850,32748,-23049,-16677,-20487,25788,14545
14860,20129,-32764,-10315,21538,-30933,-12390
14870,-9597,-27097,752,13291,-18803,-16611
14880,-11039,-18392,-1736,-2149,14216,-8999
14890,-3368,-16685,-23863,-18163,29790,790
14900,273,-23308,-16156,-20881,27012,1390
14910,-876,-32764,4976,-23697,18588,-1677
14920,-587,-32764,-4087,-20965,-7580,-8480
14930,467,-32764,-7773,-21954,-3404,-8894
14940,-960,-32764,-4183,-21446,965,-8779
14950,-3649,-30674,8379,-17211,-18227,-6682
14960,-3512,-28584,9297,-16936,-15905,-4763
14970,-1628,-24730,9550,-16359,-13478,-2514
14980,4863,-18684,13658,-12101,-15643,-3632
14990,3730,-16116,12324,-9045,-17159,-4643
15000,3097,-13713,10875,-7101,-17198,-4005
15010,3290,-11538,7179,-6407,-16198,-2946
15020,1855,-6455,5604,-8042,-8573,-3010
15030,3160,-2714,7864,-10405,2161,-2447
15040,2845,566,9177,-10642,7830,-2828
15050,-3927,-1079,6850,-6514,2858,-3106
15060,-7058,-5093,8030,-4083,3399,-2060
15070,-10085,-5657,10688,-2913,8994,-408
15080,-7377,-4501,7525,675,20780,5162
15090,-949,-3383,7162,2224,23001,6813
15100,1440,-2235,8284,4908,19297,6023
15110,4052,-2638,6597,10129,8962,4660
15120,7115,-8397,6373,21834,-15460,314
15130,7053,-18794,2904,27441,-23328,-2852
15140,5658,-29770,-1052,30656,-28179,-4724
15150,10967,-32214,3296,29585,-18811,-571
15160,14554,-32764,3591,28807,-6025,875
15170,16405,-32764,4569,22935,10551,-1737
15180,12719,-32764,2103,21150,20782,-2698
15190,8584,-32764,386,21707,26995,-2481
15200,5439,-32764,3624,25004,21376,-1622
15210,4759,-32764,5917,23670,17781,-724
15220,5783,-32764,5947,20995,14282,271
15230,3143,-32764,-3213,18139,8061,433
15240,1406,-32764,4226,15773,-8258,410
15250,3419,-30117,4899,15432,-9713,1278
15260,2667,-25230,3426,14661,-11267,1419
15270,-3003,-19632,1932,14180,-15294,2578
15280,-4037,-17008,773,14055,-16173,3875
15290,-1883,-12255,-386,14808,-18812,4329
15300,719,-4397,-3040,15325,-18927,3801
15310,8890,10112,-4392,5808,-11655,3316
15320,10074,14006,-5668,695,-6969,1864
15330,9215,16560,-6409,-3734,-3578,472
15340,3629,17850,-8820,-12819,1062,-745
15350,2904,16689,-9779,-18084,3233,-1289
15360,2229,14663,-8064,-22946,5209,-2209
15370,-4550,5265,-2127,-26167,5685,-3216
15380,-6593,-1848,1252,-25051,3791,-1534
15390,-3360,-15755,13786,-23180,2460,1733
15400,-2518,-26552,27489,-15546,6754,2385
15410,586,-32764,32764,-4958,4008,2561
15420,-6126,-32764,32764,14434,-8957,-12
15430,-8985,-12831,30498,30928,264,5678
15440,-3329,2780,-335,31605,12164,8848
15450,4798,13889,-32748,15375,18323,8749
15460,32240,-13674,-29641,-17854,28763,9025
15470,32748,-32043,-13766,-1517,3669,5253
15480,31076,-32764,15198,5799,-24698,-4363
15490,-9197,-21514,8030,9315,-21704,-12460
15500,-5562,-19889,-5900,-14613,15007,-2727
15510,-5341,-15438,-32684,-19145,22032,630
15520,-2911,-14925,-31664,-19721,26935,1795
15530,4501,-31855,2133,-27951,19859,-3717
15540,-4458,-32764,32764,-25823,6407,-9246
15550,-2252,-32764,3495,-15739,-13131,-11462
15560,-2711,-32087,-12823,-24627,-198,-9230
15570,-6808,-32764,45,-25047,-3501,-9205
15580,-8504,-32731,6556,-21993,-14291,-8370
15590,-9347,-32764,6184,-19502,-23875,-6890
15600,-5525,-31482,8055,-19641,-22208,-3480
15610,-1033,-26275,8200,-17572,-18818,-1373
15620,8880,-19693,9876,-12698,-24808,-1126
15630,7989,-16713,9480,-10241,-27246,-1095
15640,11544,-12424,9581,-8234,-27076,164
15650,7080,-6729,7732,-7405,-17959,-1089
15660,5492,-3890,5566,-8482,-11146,-643
15670,5455,-601,9315,-10904,-132,-56
15680,3304,2560,11369,-12025,9821,-628
15690,-3621,-2781,5464,-10561,18074,-1786
15700,-5742,-5456,5053,-8865,17725,-1621
15710,-9581,-5322,7691,-7181,19011,-504
15720,-9871,-3283,11003,-603,26169,7294
15730,-3879,-1923,6604,2972,25852,9942
15740,1869,-2272,7571,6180,15834,8411
15750,6884,-2176,7809,12082,3004,5758
15760,12370,-5278,9974,27912,-22892,-314
15770,9179,-12749,5388,32478,-31838,-4328
15780,6968,-23162,-726,32765,-32766,-6341
15790,13092,-32764,2287,27808,-19777,-7190
15800,15197,-32764,2840,24937,6187,-3919
15810,19561,-32764,2116,25296,21915,-830
15820,5202,-32764,908,27519,13502,315
15830,6135,-32764,6222,26508,6460,-2034
15840,5730,-32764,4719,22879,6563,-2466
15850,2783,-32764,4024,15184,5185,627
15860,1030,-32540,3198,14601,-2948,730
15870,365,-27600,3137,14952,-7618,226
15880,-4207,-19887,-2181,13731,-6558,1102
15890,-4538,-18173,-2449,12593,-9221,3398
15900,-3920,-14785,-2474,13050,-9715,4794
15910,-710,-9371,-4039,14539,-10415,5012
15920,6939,7562,-6959,12180,-12706,3928
15930,10081,16112,-7988,6321,-9041,2883
15940,10118,21582,-7615,-343,-4736,1185
15950,3985,20799,-12513,-11934,2529,-363
15960,1188,18254,-13741,-18908,4551,-1236
15970,-536,15340,-11516,-24717,6558,-2386
15980,-1727,11932,-7917,-27451,8676,-3112
15990,-3848,-851,621,-25958,7113,-2699
16000,-3964,-7954,3766,-24273,5556,-1992
16010,-2656,-14104,10648,-22845,5133,-970
16020,-3031,-32764,32764,-10834,5302,1533
16030,-6058,-32764,32764,10688,-12103,128
16040,-9122,-15542,26748,26517,-1218,6876
16050,-5749,-610,-976,27594,13740,10110
16060,-1058,12896,-32748,14758,21115,9690
16070,29536,-8770,-24880,-18655,31702,13884
16080,32748,-30453,-4205,-5185,16468,10138
16090,32748,-32764,903,14924,-18211,-3325
16100,2008,-32764,2522,19805,-31017,-19202
16110,-9874,-19094,-5998,-10307,21448,-7365
16120,-7749,-14493,-21529,-12015,28629,-303
16130,-2794,-16888,-21344,-14473,29377,2671
16140,-8,-32764,12073,-29448,11971,-3634
16150,-1309,-32764,6867,-27814,-3170,-7408
16160,-328,-32764,-3123,-23911,-4505,-8596
16170,-5004,-32764,88,-22342,-74,-9149
16180,-5626,-30746,2113,-20745,-6465,-8755
16190,-5589,-27539,774,-19131,-16098,-8506
16200,-2987,-29150,6881,-19274,-21130,-8132
16210,-4762,-29939,8315,-16972,-20523,-5970
16220,-2760,-25883,9341,-16359,-19176,-3084
16230,110,-22203,10290,-14636,-18846,-1784
16240,6039,-14556,13340,-10052,-21305,-1522
16250,6781,-11344,12068,-8589,-18908,-1111
16260,4047,-6403,5137,-8867,-12007,-1240
16270,2404,-3641,4195,-10492,-5371,-1197
16280,3392,-741,8026,-11678,1240,-1057
16290,-2958,1198,6782,-9519,4469,-2634
16300,-6006,-2336,4362,-8512,6831,-1917
16310,-8494,-4267,7198,-7687,9483,-445
16320,-10279,-3522,8028,-5912,14194,1976
16330,-4617,-2845,7179,-251,23667,7647
16340,310,-1033,9092,1803,22634,8051
16350,3955,-812,9674,6888,14382,6072
16360,10510,-3413,6214,19659,-10819,285
16370,9136,-10448,5646,24606,-20227,-2716
16380,5069,-22296,924,29719,-29239,-5273
16390,7039,-32764,1813,29451,-30816,-3342
16400,9628,-32764,288,27126,-15639,-127
16410,14807,-32764,-2189,26326,885,2140
16420,20273,-32764,-1482,24099,7043,1261
16430,13104,-32764,-224,16958,26417,-3611
16440,9243,-32764,-3369,19278,32620,-2957
16450,7654,-32764,-575,22635,32552,-1516
16460,6939,-32764,3772,26483,18062,-2186
16470,6253,-32764,3097,23969,5801,-2840
16480,4216,-32764,8547,14936,2206,290
16490,1707,-32764,3259,14174,1998,2219
16500,-61,-27445,1865,13627,-6060,2091
16510,-1392,-17651,-508,13250,-10500,1277
16520,-4769,-14445,-3024,11261,-11718,1865
16530,-4578,-11955,-1863,10486,-17193,2947
16540,-3172,-7797,-1847,11684,-16873,2638
16550,3787,3339,-6064,10049,-10514,2044
16560,8088,9272,-6139,6703,-9606,1419
16570,8858,14572,-8063,2800,-5733,223
16580,5547,18151,-9096,-3144,1454,434
16590,5605,16064,-10582,-15945,3602,102
16600,4804,13570,-9167,-21123,5298,-947
16610,1976,11601,-6378,-24253,7039,-1995
16620,-3810,3869,-1682,-24562,6076,-2393
16630,-5184,-3646,1226,-23909,6677,-1482
16640,-7102,-20221,16529,-21019,9235,-324
16650,-8966,-32337,32764,-13837,7862,-404
16660,-10197,-32736,31093,22684,-11639,-178
16670,-6332,-17695,23546,27673,-4251,5430
16680,-6263,-8064,25905,24208,4245,9245
16690,32748,-21023,-8781,-5496,21071,13678
16700,10283,-26608,-19927,23893,-31654,-14315
16710,-11885,-18296,-11955,340,-5308,-16692
16720,-14526,-21117,-8957,-18633,28327,-9975
16730,-9204,-31831,-3513,-20905,30120,638
16740,-8605,-32764,-2124,-17961,18969,311
16750,-5698,-32764,-3694,-18084,4704,-2933
16760,-703,-32764,-1291,-19682,-5354,-6956
16770,-11,-32764,-114,-18888,-5365,-11199
16780,-1629,-31266,-922,-18580,-8403,-9827
16790,-1396,-27778,-1398,-19417,-16191,-7560
16800,-2911,-32764,9414,-19606,-22750,-7751
16810,-6150,-32764,10761,-18038,-19865,-6612
16820,-6579,-30669,10728,-18731,-14344,-2790
16830,-901,-23308,10083,-18734,-9303,379
16840,3449,-20343,9871,-14235,-9908,-579
16850,5745,-16933,8920,-10865,-14866,-1487
16860,6571,-13280,7514,-8364,-16817,-1914
16870,5605,-8236,7956,-7604,-14879,-2452
16880,4075,-5420,10605,-7298,-13101,-2707
16890,2551,2847,11600,-8003,-2550,-2176
16900,92,1843,11665,-9145,7894,-2144
16910,-5507,-1869,8822,-8321,14605,-2673
16920,-9876,-3497,3737,-6486,16783,-1405
16930,-7760,-2586,3270,-1320,15939,2949
16940,-5980,-1275,6194,673,18087,4630
16950,-553,-1048,9768,3271,20086,5920
16960,7119,-1449,9047,13740,4962,2722
16970,8703,-2931,6499,19533,-8981,242
16980,8707,-6109,5573,24285,-20608,-1966
16990,5829,-22266,-1811,31656,-32734,-7433
17000,7521,-32764,24,30414,-32007,-8424
17010,9494,-32764,3969,27089,-20148,-6112
17020,15953,-32764,2687,25250,780,-1692
17030,16753,-32764,2365,24623,13544,-1823
17040,11109,-32764,2979,21738,16564,-4376
17050,6523,-32764,-837,21094,25321,-3596
17060,8637,-32764,2201,23673,22701,-574
17070,9790,-32764,4957,23530,13668,-2126
17080,7243,-32764,5597,21294,6451,-4715
17090,997,-32764,8966,15090,-1911,-1902
17100,-481,-32764,4813,14624,-2483,115
17110,-920,-29403,3305,13353,-5405,609
17120,-2406,-19307,-621,9170,-5284,2532
17130,-3850,-17250,-1465,8598,-9512,3657
17140,-3166,-14432,-2246,8519,-13296,5143
17150,118,-5275,-3628,9018,-16052,5164
17160,4952,989,-3389,7700,-16234,4465
17170,10291,8657,-2328,5279,-14239,3432
17180,9072,19409,-5123,-4511,-1277,1201
17190,7091,19104,-8586,-11941,4247,1629
17200,5331,17929,-10219,-18636,7834,995
17210,-1239,11919,-7033,-25858,9907,-2328
17220,-1970,6442,-4312,-26721,10119,-1917
17230,-3164,-632,-1542,-26428,9091,-1578
17240,-2808,-8438,2070,-24922,7836,-1604
17250,-5008,-23647,19915,-18542,9405,-742
17260,-6485,-32764,32764,-9652,7435,560
17270,-6958,-32764,32764,9850,-10845,616
17280,-9200,-14937,26771,31944,-14205,5081
17290,-10292,-3753,13081,30803,3624,8973
17300,-5378,10522,-30993,22858,21007,12441
17310,3553,10101,-32748,-9122,31149,14426
17320,32748,-21839,-21964,-13817,22628,14388
17330,32746,-32688,13864,5216,-3209,3493
17340,-10451,-24041,15947,14761,-23783,-14339
17350,-9011,-19559,4244,2255,-8009,-9261
17360,-2446,-17639,-11725,-8240,11164,-3405
17370,-986,-27399,-6306,-20525,26778,-2273
17380,1316,-32729,-3679,-21373,16309,-3371
17390,2329,-32764,-1913,-22556,537,-6691
17400,353,-32764,-2577,-21936,-7600,-10385
17410,-4683,-32764,528,-18822,-4992,-11601
17420,-9438,-32764,1068,-17912,-9370,-10963
17430,-7778,-32764,-105,-18064,-16516,-8866
17440,-5171,-32168,7617,-20133,-19714,-6409
17450,-3093,-30685,9312,-19597,-21907,-4967
17460,-694,-28225,9737,-18390,-22131,-3252
17470,1187,-25420,9807,-15849,-21096,-2402
17480,6540,-19724,8874,-11501,-22668,-793
17490,9974,-16016,9630,-10727,-22880,-710
17500,8835,-14100,8957,-9683,-20976,-1940
17510,5048,-6369,6151,-8085,-9740,-1729
17520,4566,-915,8468,-9363,-2911,-1281
17530,4337,3234,10489,-10755,3846,-1064
17540,-5028,887,5692,-11311,9631,-1820
17550,-7706,-1805,10891,1067,18125,3929
17560,-1495,-2084,11270,5423,20766,5648
17570,6818,-1546,9138,13217,6682,3683
17580,7694,-2974,7739,17140,-4552,1532
17590,8126,-5780,7637,21864,-15886,-699
17600,5023,-14619,-1049,30964,-31250,-5567
17610,3476,-25236,-3217,30978,-32503,-7954
17620,5348,-32764,901,27477,-26383,-8293
17630,10663,-32764,4340,23973,7444,786
17640,12956,-32764,4122,26641,12516,2028
17650,11675,-32764,3398,27488,13714,196
17660,6269,-32764,1266,25404,19076,-1514
17670,9371,-32764,3427,23354,19762,1790
17680,10570,-32764,3375,24446,13538,1327
17690,6615,-32764,2227,23817,9599,-350
17700,6531,-32764,7461,21134,4573,-508
17710,-1910,-32764,5251,16645,-5202,2967
17720,-740,-32335,4922,15243,-8060,4565
17730,-3752,-27414,752,14976,-9331,4140
17740,-4340,-19271,-1866,12646,-13828,7019
17750,-4503,-17183,-2486,12124,-16469,8048
17760,2864,-4701,-4134,12726,-20275,7940
17770,7727,4683,-4815,11684,-19811,6055
17780,12210,13323,-4030,8263,-16155,4210
17790,11066,20178,-8607,-3425,-2249,1973
17800,8334,21516,-10952,-11151,3583,1842
17810,5441,20178,-11057,-17666,6345,480
17820,2974,16773,-8484,-22492,9075,-1268
17830,-1664,8286,-3089,-24883,9815,-3092
17840,-1837,2626,-402,-23939,9055,-2994
17850,-2135,-3219,2199,-22740,9376,-2360
17860,-3661,-15292,17459,-19005,10927,556
17870,-1435,-26050,30682,-12856,9114,1868
17880,-2771,-32764,32764,-931,-3752,131
17890,-8270,-22440,32764,25926,-19972,-1901
17900,-6477,-13141,22599,29732,-4098,1950
17910,-54,-725,-19615,26081,15326,4425
17920,21545,-11419,-30704,-802,32606,10814
17930,32748,-23230,-21385,-11946,24196,10263
17940,31291,-32764,-3330,1009,-1962,814
17950,10209,-26202,-3619,9137,-24290,-7902
17960,-7052,-19612,-1795,-3468,2268,-6760
17970,-4695,-21951,-18036,-15421,20845,-3368
17980,-3610,-23488,-19411,-20952,30313,-1530
17990,-4460,-32764,7835,-25791,15284,-2646
18000,-5264,-32764,4643,-24076,-2071,-5664
18010,-1356,-32764,-5316,-21886,-8208,-7426
18020,-1933,-32764,-3425,-20273,-4207,-9933
18030,-3261,-30844,69,-18696,-10239,-9234
18040,-1670,-29580,2996,-18042,-20668,-7649
18050,-3723,-32764,10531,-17738,-23111,-5819
18060,-3762,-30082,11005,-17782,-17797,-2973
18070,-381,-24826,11469,-17457,-13292,-709
18080,3742,-19625,12364,-12841,-14857,-1366
18090,3140,-17137,10593,-10211,-16570,-1822
18100,3822,-14019,9969,-8420,-18125,-1590
18110,1248,-8273,6301,-7168,-18236,-2404
18120,1271,-3867,7228,-8700,-12480,-1787
18130,3203,-293,10540,-10662,-1279,-1063
18140,-2442,1347,7319,-11144,6698,-1456
18150,-4915,-1118,7696,-9828,9564,-2250
18160,-8076,-2747,8857,-8209,13500,-2327
18170,-10582,-3367,7522,-5334,17851,-600
18180,-6045,-1503,7706,117,20374,5928
18190,-116,-1164,9619,3484,17731,6272
18200,9243,-1820,6858,15247,-3967,1951
18210,11367,-3028,9116,20396,-16213,-334
18220,11744,-5831,10693,25718,-26078,-2814
18230,6117,-18245,206,30456,-32005,-5307
18240,7039,-29966,-2372,28161,-30706,-7933
18250,8275,-32764,-848,23658,-18077,-7888
18260,7289,-32764,832,20328,2928,-4375
18270,9880,-32764,-710,26286,13230,-105
18280,7620,-32764,-343,27539,9511,-2367
18290,4140,-32764,93,26344,10503,-3915
18300,9214,-32764,2115,26295,14331,-3745
18310,12689,-32764,4664,25685,9035,-2991
18320,12105,-32764,6472,22601,5752,-3460
18330,8008,-32764,8329,18160,6193,-3035
18340,-3460,-32764,-1192,13466,2680,785
18350,-2504,-29805,4263,10824,-8072,3535
18360,-3842,-25773,1659,10756,-7871,3747
18370,-3353,-17810,-2889,10389,-9953,4642
18380,-2103,-14577,-4044,10125,-11246,6224
18390,633,-8434,-5711,10453,-12583,6708
18400,2947,-1980,-6419,10355,-14293,5406
18410,3387,21916,-9375,-12572,5051,554
18420,-345,14148,-6943,-22706,11334,-669
18430,-509,10915,-4153,-24543,11952,-1541
18440,-543,6189,-637,-24630,12011,-2554
18450,-1953,-6254,4419,-21488,10000,-3071
18460,-3236,-12523,10812,-19129,8246,-2010
18470,-4807,-21095,23334,-15060,7161,-567
18480,-3962,-32183,32764,-5916,2866,42
18490,-8807,-26363,32764,26697,-26721,-3595
18500,-8962,-14980,32764,30978,-13333,889
18510,-5693,-4052,552,31579,6411,5280
18520,3449,8536,-32748,-16722,32422,10268
18530,23410,-8087,-28254,-25579,32577,16400
18540,32748,-25955,-14595,-11727,23395,13845
18550,32748,-32764,658,7518,-7069,405
18560,-14198,-32764,16793,-173,-18716,-19906
18570,-14686,-28360,5504,-6710,4022,-9764
18580,-10346,-24078,-12721,-4750,18961,-709
18590,-5401,-25687,-11529,-18457,11739,1175
18600,3136,-32764,-3458,-22618,2149,-144
18610,3440,-32764,3116,-23157,-9322,-5751
18620,343,-32764,-890,-19793,-10622,-7979
18630,-2473,-32659,668,-20128,-7490,-6286
18640,-3048,-30054,1306,-20433,-10052,-4977
18650,-3812,-30714,7995,-21467,-21649,-3620
18660,-2140,-30744,13200,-20510,-22620,-1985
18670,-2547,-28357,12157,-18703,-18901,-824
18680,3963,-22756,12445,-16536,-13908,164
18690,6030,-19938,10961,-14047,-12699,-630
18700,5980,-15400,8799,-10991,-14704,-1042
18710,7178,-8995,8638,-8612,-16066,-1829
18720,5144,-7244,9731,-8895,-10482,-2064
18730,2892,-4090,11788,-9325,-3025,-2274
18740,-2750,847,7869,-9668,7771,-3509
18750,-6470,225,5994,-8677,11155,-3362
18760,-8685,119,5173,-6483,11633,-2251
18770,-11025,-893,6994,-3945,9822,-642
18780,-5543,-1904,6419,2932,13277,4354
18790,-1784,-856,6972,4591,17273,5004
18800,2461,-1644,8113,7321,14358,4249
18810,9189,-2013,7038,16825,-6372,1658
18820,11100,-3685,8269,21809,-18965,-914
18830,10291,-7351,6896,27022,-28866,-4072
18840,6584,-27064,-139,30810,-32043,-8645
18850,4169,-32764,752,27406,-23399,-9138
18860,3871,-32764,3852,23736,-6209,-5152
18870,10779,-32764,3644,26818,11093,-741
18880,8957,-32764,5394,27982,9573,-2943
18890,5788,-32764,2745,28705,11993,-3460
18900,9154,-32764,2172,25970,13952,-424
18910,10618,-32764,6605,22227,11600,234
18920,8615,-32764,8850,18876,10066,-562
18930,-3812,-32764,3368,17004,9434,-571
18940,-4647,-32764,6762,16221,-10746,1426
18950,-4094,-31135,5116,15919,-12503,1232
18960,-742,-25609,3945,15378,-12276,1163
18970,-2542,-18591,-1407,10928,-14780,5091
18980,-3089,-14869,-1935,10979,-18582,5804
18990,-1316,-10797,-3568,12687,-20395,5770
19000,7975,3589,-5676,11024,-19693,6787
19010,13210,11689,-4263,4940,-13800,6122
19020,13820,16557,-3688,-1043,-7010,3536
19030,11975,18624,-4552,-5088,-1707,1242
19040,3097,18380,-8350,-13919,6713,-682
19050,1118,16094,-9353,-18960,9718,-1064
19060,-1654,9223,-6134,-24949,11277,-2562
19070,-2479,3070,-4259,-24892,9318,-3234
19080,-3191,-3918,-421,-23896,7452,-3091
19090,-2026,-14694,12724,-21732,6211,-375
19100,-1080,-22865,23106,-12586,7149,517
19110,-258,-32764,32764,-3309,3032,151
19120,-5896,-32764,32764,13309,-12917,-2524
19130,-6915,-15393,32328,32763,-4302,735
19140,-123,-1094,-14496,30067,15163,3784
19150,3454,5000,-32748,2816,27738,4563
19160,32748,-22393,-25529,-12990,29933,10237
19170,32748,-32764,-236,2849,4366,1974
19180,16602,-32121,20084,12548,-28334,-10277
19190,-5945,-20866,17726,15206,-29369,-14908
19200,-14290,-16320,-25550,-19096,26393,-4506
19210,-12953,-18110,-30014,-21174,32525,1546
19220,-5678,-23580,-20586,-21374,26616,3504
19230,-11233,-32764,25138,-25135,-4615,-5047
19240,-4662,-32764,-4713,-20029,-13625,-6572
19250,-2777,-32764,-10193,-19460,-8624,-8394
19260,-4158,-32764,-3913,-20444,-8784,-8549
19270,-1218,-31974,12977,-21358,-27790,-610
19280,425,-27239,10611,-17752,-18577,3158
19290,6196,-23687,8964,-15973,-18098,4051
19300,9688,-19087,8654,-13955,-18872,3261
19310,12282,-14801,8668,-11284,-21277,1803
19320,10332,-7020,8957,-8465,-12494,-214
19330,8621,-3721,13187,-8002,-4859,-414
19340,6241,955,13793,-6865,1032,-1081
19350,-2676,1764,7553,-8402,14751,-2193
19360,-5171,-519,4342,-7818,18231,-2280
19370,-6967,-1693,3599,-6240,17961,-2057
19380,-8545,-2609,5654,-3890,17617,-910
19390,-3092,-2976,12402,3359,21630,4810
19400,1647,-2228,11505,8266,18533,5542
19410,6271,-1706,6595,16439,-5237,988
19420,7960,-4502,9040,20601,-17672,-1526
19430,4480,-19212,2130,30082,-32390,-7223
19440,5848,-29896,-406,28737,-29198,-7613
19450,4473,-32764,367,25277,-16697,-6018
19460,3847,-32764,858,24343,-1434,-1922
19470,7113,-32764,5427,26874,6659,-422
19480,4590,-32764,6115,26531,10340,-2147
19490,-901,-32764,-262,26669,14697,-2388
19500,2812,-32764,3287,26280,6068,-952
19510,9167,-32764,9531,26229,799,-429
19520,10466,-32764,4002,26352,5508,-1214
19530,8528,-32764,5375,19738,3563,1907
19540,766,-32764,372,17886,-2785,2604
19550,2403,-32764,6894,15873,-10181,4180
19560,-2847,-25490,1865,15751,-8752,4856
19570,-3717,-20801,2119,13755,-13668,7252
19580,-5254,-18202,124,13523,-17886,8648
19590,1186,-6962,-3774,17252,-21292,7662
19600,3861,-131,-5991,14714,-19815,6189
19610,8590,5584,-6113,9332,-17092,5866
19620,12204,10948,-7067,4708,-12635,4575
19630,10997,17640,-8796,-4099,-2235,1275
19640,7513,18338,-9996,-8598,1896,448
19650,3850,17564,-11853,-13291,4987,-387
19660,1870,14296,-11065,-23038,9303,-1821
19670,-566,10584,-7698,-25549,10044,-2974
19680,-2765,5857,-4668,-25703,8504,-3521
19690,-2897,634,-1783,-24618,5946,-2931
19700,-1214,-11410,9448,-22033,5560,-23
19710,-320,-19259,22183,-18478,7392,1723
19720,-3503,-32764,32764,4868,-5585,467
19730,-12607,-32764,32764,23683,-21110,-2766
19740,-11460,-21217,32764,29082,-9534,1347
19750,1204,8570,-28522,23174,24598,8348
19760,4161,7833,-32748,-8325,31581,7898
19770,27785,-11215,-32748,-24424,32380,10834
19780,32748,-32764,7203,3832,-10762,-1452
19790,2785,-32764,32759,13797,-31334,-11822
19800,-12365,-20737,21396,16526,-17065,-11134
19810,-8093,-13046,-329,-2109,5285,-4845
19820,-2234,-12542,-30975,-20118,31924,2803
19830,4785,-18106,-24186,-23204,32742,2834
19840,7738,-28796,-11075,-28699,29133,-2542
19850,-4901,-32764,12055,-23038,-21054,-12661
19860,-479,-32764,-5634,-20276,-16148,-10136
19870,-4971,-32764,-6063,-23537,1577,-8907
19880,-8832,-30956,1344,-20889,-7259,-7449
19890,-9741,-30967,3429,-21715,-17603,-7259
19900,-8481,-32764,9424,-22674,-20916,-6382
19910,-5682,-30102,9552,-19852,-16983,-1531
19920,-1151,-27708,12013,-18042,-18133,-306
19930,2589,-25055,10771,-14896,-20555,-528
19940,11572,-13312,11471,-10583,-24036,52
19950,11816,-10763,9500,-8932,-19959,-1706
19960,7837,-8803,6844,-8807,-13751,-2872
19970,3900,-972,11245,-11720,700,-2445
19980,-876,1903,8005,-12597,9547,-2677
19990,-3730,3487,5392,-13011,13735,-2412
20000,-9447,239,10903,-9138,11190,-3788
20010,-11780,-2849,11712,-4224,13118,-2969
20020,-9249,-4400,7275,362,17237,688
20030,-4343,-4881,7516,1884,21433,4437
20040,6611,-2252,9715,7818,11065,5460
20050,10425,-1851,8209,15227,-5188,2379
20060,10443,-3048,8739,22175,-18689,-1351
20070,7194,-8980,3099,31607,-32599,-6476
20080,4532,-18415,1762,31780,-32767,-8017
20090,5272,-31558,990,30347,-31110,-8941
20100,3975,-32764,76,28002,-17245,-9452
20110,10376,-32764,2704,25427,17297,-313
20120,10045,-32764,2440,29040,18165,562
20130,7726,-32764,4487,28849,2818,-2349
20140,7517,-32764,5789,26423,2869,-2543
20150,6410,-32764,7663,21783,1047,-762
20160,708,-32764,4436,15865,-3871,1715
20170,-1222,-32764,5570,15005,-10130,2835
20180,-1470,-28964,2927,14676,-7747,3953
20190,-3378,-20798,-2165,11181,-11557,7367
20200,-1018,-15794,-1984,11078,-16386,8975
20210,-504,-10625,-3915,12796,-17814,7944
20220,1583,-4478,-5291,13718,-18960,6938
20230,9967,10097,-5303,8218,-15604,4803
20240,12627,16465,-4625,2469,-9753,3322
20250,12324,21029,-5811,-3092,-2999,2771
20260,4631,20676,-10725,-15409,9050,1255
20270,1685,18000,-11619,-21467,11576,133
20280,376,14769,-10043,-26527,12991,-1070
20290,-794,6635,-4670,-28759,12137,-3147
20300,1065,-536,-3387,-26959,10696,-3790
20310,399,-8043,-496,-24674,8365,-4147
20320,-1163,-24665,23929,-17061,5814,-907
20330,939,-32764,32764,-6074,6288,971
20340,-3561,-32764,32764,14131,-10740,-318
20350,-9535,-17207,32764,32640,-18748,2735
20360,-6929,-4679,19544,32577,3010,6328
20370,-3089,10010,-25329,24964,17661,5920
20380,15681,-2085,-32748,-27532,32740,14973
20390,32748,-24075,-25142,-18254,24242,15538
20400,32748,-32764,-2570,-44,-326,2954
20410,-12467,-32764,24714,7374,-25341,-14677
20420,-11989,-22427,11380,5188,-6169,-9467
20430,-9468,-15021,-16983,2456,11128,-2910
20440,-1504,-19135,-13216,-8290,20486,359
20450,7077,-28086,-614,-24699,11910,1632
20460,6290,-32764,8791,-26795,-1020,-3381
20470,450,-32764,5576,-23837,-7256,-7715
20480,-5156,-32764,1077,-21516,-443,-6834
20490,-6949,-32691,3474,-21655,-2606,-6551
20500,-7564,-29308,766,-21212,-7802,-6420
20510,-7200,-30862,7217,-22589,-12420,-6278
20520,-5108,-30398,9491,-20992,-21563,-4802
20530,-2754,-28111,9323,-19169,-21110,-3698
20540,-73,-24413,8901,-16730,-19666,-2665
20550,4061,-18418,9698,-11802,-25165,-3208
20560,8076,-14683,11820,-10327,-26988,-1653
20570,9963,-8884,9206,-9423,-15623,-1379
20580,8536,-6976,10873,-11001,-4538,-1109
20590,5744,-3641,11886,-11226,3130,-949
20600,-4676,755,5642,-11443,7403,-2489
20610,-7168,-701,1888,-9895,9602,-2295
20620,-10764,-1548,2521,-8097,10683,-2212
20630,-14850,-1118,7603,-5919,10653,-854
20640,-3890,-1359,12293,3146,21840,7201
20650,440,-1048,9987,7158,22168,6523
20660,3823,-1094,6937,10532,10406,3981
20670,10939,-4210,6004,19264,-16687,-403
20680,10723,-6600,4731,25483,-27304,-3653
20690,6835,-13010,1014,30679,-32512,-6790
20700,7893,-32563,907,30133,-32605,-8197
20710,8898,-32764,4041,26852,-23383,-7642
20720,12130,-32764,5292,24197,-489,-3337
20730,15523,-32764,3939,24310,15919,75
20740,12325,-32764,1944,26335,23128,-1788
20750,6562,-32764,-537,25363,26901,-2396
20760,4456,-32764,-1117,25414,26056,-1960
20770,4866,-32764,3777,23740,9473,-1958
20780,4080,-32764,5403,20230,3083,-2919
20790,-3163,-32764,4748,16363,-2467,-353
20800,-1599,-32764,5324,15726,-10372,2033
20810,73,-28455,5891,14773,-11153,2312
20820,-3591,-23933,1660,14128,-7565,1793
20830,-3942,-17251,-3195,9959,-14951,5887
20840,-1406,-13425,-1920,9859,-17380,6502
20850,712,-7890,-3696,11344,-17454,5924
20860,6850,4845,-5320,8658,-16439,4417
20870,11235,11348,-4434,3926,-12862,3717
20880,12017,16813,-3537,-1171,-7408,2158
20890,10355,20082,-4388,-6417,-1177,1463
20900,2709,18595,-9613,-17441,7789,351
20910,1094,15704,-8226,-23382,10409,-343
20920,-630,12358,-5739,-26982,11279,-1392
20930,-3345,994,-1242,-26769,8702,-2230
20940,-4182,-6481,1850,-24891,8229,-1626
20950,-4321,-12236,7647,-22352,7286,-185
20960,-1266,-32764,32764,-8072,5047,1865
20970,-4787,-32764,32764,11440,-14058,-1054
20980,-10945,-32434,32764,29847,-26490,-3325
20990,-3922,-7147,5120,32572,5533,5477
21000,28619,-30760,-3151,-2086,12415,-2621
21010,980,-21505,19074,9848,-29683,-10806
21020,-7267,-15859,18999,8988,-16605,-9023
21030,-7582,-17436,-12626,-2849,5637,-5559
21040,-3088,-19670,-26074,-20440,29735,486
21050,383,-27585,-14404,-23020,23111,-68
21060,-6515,-32764,24825,-25967,9772,-3635
21070,-7175,-32764,18258,-23209,-9001,-6043
21080,-1698,-32764,-10279,-19774,-2432,-6912
21090,-3440,-32764,-2980,-20262,-3197,-7723
21100,-1769,-29866,4482,-20108,-13014,-7143
21110,-3031,-31148,5097,-20057,-23548,-6678
21120,-3390,-32764,8072,-20712,-21606,-4593
21130,-3110,-31397,10350,-20669,-19672,-2130
21140,-1669,-25376,8470,-18759,-16342,-217
21150,3401,-21362,9799,-13737,-21776,646
21160,6724,-17469,10611,-12348,-23941,1199
21170,8206,-13851,11183,-10440,-23495,809
21180,7649,-6143,6078,-9625,-15530,545
21190,8634,-4626,11015,-11853,-2851,937
21200,8642,-1311,12010,-11181,4923,456
21210,-1599,-646,7235,-11691,13680,-1888
21220,-4702,-2631,3452,-11095,16408,-2057
21230,-7173,-1825,3614,-10128,17297,-1699
21240,-12832,-1342,12955,-3009,21895,3732
21250,-5235,-1358,8466,2574,26023,7929
21260,-1240,-434,7740,5331,21412,7582
21270,7514,-2365,8918,13920,-5373,2122
21280,10196,-3866,9122,20136,-15639,-314
21290,9420,-7944,5353,25986,-25148,-3226
21300,6217,-17062,550,29572,-31922,-5335
21310,6920,-32764,-489,27515,-27718,-6919
21320,9547,-32764,3384,24974,-12109,-4716
21330,13488,-32764,4499,25520,2435,-1227
21340,9667,-32764,3786,25878,11039,-2444
21350,4221,-32764,2725,24216,16974,-3156
21360,2255,-32764,-695,25133,19853,-2847
21370,4989,-32764,2504,26141,16571,-2305
21380,8669,-32764,8066,24436,12020,-2310
21390,4126,-32764,3310,22206,11203,-1838
21400,5979,-32764,5115,18614,6728,240
21410,-706,-32764,1319,14748,-4043,1800
21420,2957,-28889,3232,12147,-5871,3722
21430,2004,-22928,259,11950,-4283,3782
21440,-2672,-16042,-3956,12667,-12192,4211
21450,-2565,-13498,-2782,12225,-14318,5694
21460,-131,-8453,-2771,13720,-17050,5626
21470,6618,6669,-3938,9823,-12674,2735
21480,9804,12816,-4182,3660,-8252,1513
21490,8946,16106,-5020,-1518,-4792,-227
21500,1026,18327,-10047,-5503,-1951,-776
21510,-612,17528,-13043,-15450,1842,-1067
21520,224,15882,-11131,-21981,4521,-894
21530,-772,12785,-7838,-25231,6557,-1892
21540,-3157,312,-176,-24404,7486,-1820
21550,-3337,-6464,4094,-22994,7618,-502
21560,-2747,-11785,11018,-21200,9296,1451
21570,-2187,-32764,32764,-17564,11628,3108
21580,-9215,-32764,32764,11802,-13343,303
21590,-10969,-31026,32764,27389,-17360,-69
21600,-9536,-17905,32764,29604,-2521,5631
21610,4348,2694,-32748,7985,28065,11524
21620,21282,-8559,-32748,-16900,32661,11705
21630,31365,-21267,-24040,-9224,25008,8873
21640,15827,-17936,3583,14133,-29836,-7151
21650,1902,-7855,11446,15683,-30362,-10245
21660,-5522,-11042,-20366,-14375,9857,-5788
21670,-4365,-17987,-21998,-29596,29499,-3675
21680,481,-27440,-14694,-31324,30496,-3132
21690,-2533,-32764,12328,-28331,21888,-5295
21700,-7351,-32764,-4508,-19508,-6468,-6427
21710,-7019,-32764,-7505,-21211,-4538,-5705
21720,-6074,-32764,-431,-22674,-1295,-4903
21730,-3087,-31657,3282,-21833,-3246,-4450
21740,144,-25822,-354,-21129,-19438,-5780
21750,-886,-29486,6339,-21658,-22673,-6257
21760,-2207,-31696,7052,-18827,-25000,-5523
21770,385,-27846,10272,-15530,-24228,-1846
21780,4832,-24304,11080,-14418,-21748,404
21790,7679,-19840,9749,-12626,-21308,1385
21800,12512,-14548,8971,-11063,-20203,1469
21810,7376,-9026,4418,-8481,-12165,-800
21820,7309,-4707,6398,-9825,-6455,-423
21830,5542,-165,11640,-11007,2609,-725
21840,-4569,1355,5955,-12144,15594,-1963
21850,-11919,-2582,12198,-4597,19154,1847
21860,-1616,-3709,12630,4622,21866,6859
21870,3364,-2088,10766,7977,13442,5729
21880,7744,-1973,8854,12142,-657,2672
21890,8874,-7062,4955,21869,-23714,-3334
21900,4289,-16802,-1150,26353,-29851,-6048
21910,3650,-27355,-3170,28308,-32224,-7712
21920,6797,-32372,-716,27620,-29003,-7552
21930,10875,-32764,4405,28281,-2528,-2723
21940,12950,-32764,4454,29741,2571,-1737
21950,10563,-32764,5410,27615,7234,-2897
21960,2914,-32764,-295,22311,17785,-3717
21970,4840,-32764,866,24558,14896,-2780
21980,11353,-32764,6051,28396,11934,-2330
21990,11391,-32764,568,31028,13760,-3292
22000,2990,-32764,2666,18159,10583,1173
22010,259,-32764,3183,12524,5322,3936
22020,-9,-32764,3543,11439,-2419,5156
22030,538,-20956,2262,13323,-4571,5045
22040,-3434,-16814,-3064,13575,-7180,5038
22050,-4912,-15720,-4923,13173,-12874,6225
22060,-1476,-8144,-3223,14819,-19731,7078
22070,1333,-129,-3974,15218,-19439,4388
22080,6038,6967,-4650,11281,-16436,2191
22090,10507,16680,-5107,325,-7489,182
22100,7376,19692,-7469,-4297,-3910,-230
22110,3134,20604,-10855,-10125,-356,-565
22120,1874,16136,-9862,-22623,6378,-1363
22130,-150,12285,-6572,-25128,8515,-2419
22140,-644,6669,-3055,-25032,8596,-2891
22150,-1050,-25,980,-23758,8437,-2594
22160,-869,-10777,10527,-19602,9226,296
22170,-1139,-18518,21597,-15967,11366,2062
22180,-6115,-32764,32764,8564,-12213,1135
22190,-11466,-29075,32764,23440,-20615,-597
22200,-9563,-16954,32764,26303,-7838,3162
22210,570,5032,-32748,13693,25955,9286
22220,12755,-632,-32747,-15702,32375,11384
22230,29168,-16727,-26101,-17650,29467,11442
22240,21400,-32681,-4039,7946,-22315,-4913
22250,-590,-22065,12113,8942,-21894,-9847
22260,-4721,-15509,10274,5402,-4092,-7388
22270,-8375,-15728,-30053,-22987,21155,-3152
22280,-4126,-20716,-23067,-29497,25790,495
22290,201,-31614,-6176,-31226,22184,-117
22300,-5927,-32764,581,-17462,-2876,-7297
22310,-4143,-32764,-13280,-19863,-10504,-8995
22320,-3492,-32764,-9940,-24097,-10581,-9289
22330,-468,-31608,3214,-18109,-15301,-8181
22340,303,-32721,3165,-15091,-26241,-8859
22350,-2438,-32764,8849,-16880,-31421,-7854
22360,855,-27880,9533,-17017,-20792,-1847
22370,3567,-24175,10050,-15423,-17978,-485
22380,6294,-20805,11172,-13717,-19424,192
22390,8752,-12072,8911,-11815,-20478,472
22400,6169,-10351,7698,-9406,-14914,-1000
22410,3410,-7808,6027,-8501,-13562,-1949
22420,2968,-3192,7581,-8739,-11427,-1665
22430,1224,3552,11251,-11968,10354,-401
22440,-3005,1616,9228,-12933,17797,-1193
22450,-8315,-2233,5411,-11676,17598,-2530
22460,-11238,-3924,9563,-7366,16052,-166
22470,-10135,-2995,9441,-3138,20196,3286
22480,-6325,-2597,10890,431,23260,6535
22490,-480,-3287,12848,3868,21004,7486
22500,9105,-1626,10081,14633,-6499,2756
22510,10222,-3188,9331,19962,-21084,-608
22520,3149,-16060,-4898,28974,-32765,-6026
22530,3866,-26952,-4528,28243,-32760,-7500
22540,6879,-32764,201,26003,-27881,-8625
22550,10233,-32764,1479,26164,7199,-1506
22560,13835,-32764,2289,28180,10370,700
22570,12010,-32764,2934,27201,10561,-1051
22580,8408,-32764,-171,23582,16311,-3349
22590,12211,-32764,875,26562,15391,-3217
22600,16227,-32764,4561,29887,13892,-3776
22610,17686,-32764,4921,30936,13837,-4050
22620,6804,-32764,2424,19580,14269,-1015
22630,3730,-31457,5367,13941,12056,1264
22640,-4391,-32265,-1487,13047,4624,1344
22650,-3085,-22645,3475,12014,-1687,3515
22660,-6076,-18025,-1965,12539,-2658,3528
22670,-7104,-15614,-4250,12131,-10007,4408
22680,-6333,-13058,-3251,11828,-15376,5421
22690,524,-1597,-5084,14806,-19799,4040
22700,6342,6895,-5250,12419,-18922,1762
22710,9782,14711,-4555,6522,-14286,-21
22720,1733,15696,-9439,-23871,7002,-1970
22730,-1425,10549,-6104,-25560,7702,-2602
22740,-4008,-3357,1135,-24977,6055,-2259
22750,-3480,-9220,6272,-22484,6706,1366
22760,-2102,-15998,16861,-19992,9710,3278
22770,-1692,-28526,32446,-13783,12019,4332
22780,-9172,-32764,32764,23865,-18089,-555
22790,-10346,-25661,32764,32642,-12581,1259
22800,-6910,-10855,16232,32738,4390,6719
22810,8738,4929,-32748,-11380,31230,9922
22820,25728,-9566,-32299,-22369,32215,10965
22830,32748,-20992,-18951,-3952,15141,8305
22840,11339,-17112,20755,13270,-32196,-10032
22850,-4130,-13489,16472,9357,-23218,-13047
22860,-8967,-18598,-19484,-9867,5641,-10660
22870,-7324,-24095,-30848,-32748,32335,-104
22880,-293,-30603,-19447,-32662,25482,977
22890,-13638,-32764,31118,-31331,15423,-3440
22900,-16029,-32764,23824,-20203,5923,-6376
22910,-6750,-32764,-14244,-24058,-10348,-7690
22920,-3606,-32764,-5456,-26621,-9653,-6515
22930,4128,-29510,7065,-16889,-19722,-7612
22940,1301,-30843,4608,-15320,-30381,-9019
22950,-181,-31077,9018,-18311,-32103,-7209
22960,4562,-23650,10830,-15131,-23024,-2150
22970,6803,-20529,14050,-13624,-21290,-1091
22980,7772,-17453,14096,-11337,-20957,-476
22990,10523,-12257,13514,-9239,-19054,-599
23000,2340,-7597,4808,-8389,-10266,-2136
23010,3247,-3940,5873,-10553,-4688,-977
23020,3000,201,8608,-12354,5963,-540
23030,-5530,596,5708,-12182,16439,-626
23040,-7802,-1721,5696,-11788,16743,-738
23050,-12759,-2495,9368,-11074,19751,-438
23060,-14950,-2269,13024,-8051,24363,2379
23070,-3513,-1563,12224,2992,26502,8976
23080,1909,-1819,9313,7821,14050,6878
23090,6936,-1719,8877,11704,-185,3688
23100,11074,-4256,8656,21658,-18604,-2474
23110,7172,-8792,3865,26361,-25031,-4966
23120,4602,-15421,-1201,28776,-30906,-5829
23130,4700,-24007,-1921,28791,-32758,-6729
23140,7885,-32764,2236,25567,-11829,-7296
23150,11630,-32764,3710,25020,7464,-2610
23160,11493,-32764,2906,26891,13661,-1281
23170,5891,-32764,2351,24228,16174,-2773
23180,3870,-32764,-2047,23959,18865,-2682
23190,14929,-32764,6928,25566,10466,-1064
23200,13399,-32764,7753,28907,12739,-3175
23210,7916,-32764,4592,25560,11341,-3500
23220,3529,-32764,6535,18959,7346,-597
23230,-2576,-31885,5819,12023,-5284,4212
23240,-2324,-24640,3372,12487,-3905,4238
23250,-5469,-19763,-1768,14027,-6540,3076
23260,-4562,-15504,-2544,13547,-14734,5885
23270,-2317,-11358,-3193,15627,-16933,5579
23280,-305,-4491,-5096,16856,-18569,3831
23290,2804,3363,-5369,14029,-17383,2736
23300,10103,15375,-7240,3461,-10162,895
23310,9584,18753,-7958,-1733,-6046,-821
23320,6515,20047,-8581,-6466,-2111,-1678
23330,261,17275,-12112,-16902,5041,-1589
23340,-19,14313,-10747,-22696,7364,-1386
23350,-1269,10547,-7685,-25888,8001,-1917
23360,-3662,-1503,-350,-24568,6033,-957
23370,-2953,-7395,4724,-22873,4988,686
23380,-276,-13150,13559,-20601,5397,2198
23390,-103,-32764,32764,-4917,3400,3890
23400,-9199,-32764,32764,16035,-13150,722
23410,-10113,-26646,32764,29245,-9558,1416
23420,-9156,5375,-23323,31696,6870,6416
23430,5541,9380,-32748,-3110,27987,8330
23440,27111,-9310,-32726,-24795,32599,8642
23450,32748,-28022,-18923,-8712,20530,5911
23460,2660,-32764,14906,24057,-32226,-15783
23470,-13580,-14009,2822,12870,-16284,-14492
23480,-15134,-7331,-8960,-7808,11903,-6156
23490,-7020,-13899,-24225,-20139,29256,1363
23500,275,-27620,-7318,-29767,31833,5299
23510,-6728,-32764,26595,-27908,20018,-628
23520,-6598,-32764,234,-21908,-4314,-5342
23530,-3971,-32764,-7652,-26950,-3362,-6583
23540,-6177,-32764,-429,-25554,-4305,-6320
23550,-3303,-32457,3411,-22156,-12752,-6040
23560,1268,-27936,324,-18388,-25048,-6840
23570,5314,-22413,9541,-14110,-23070,-1669
23580,10604,-18005,11863,-12488,-21999,-329
23590,7274,-11708,7799,-8848,-16787,-2319
23600,6461,-9769,6542,-8952,-12696,-1695
23610,4222,-7461,7376,-10166,-5881,-1085
23620,114,-684,10830,-11501,8547,257
23630,-5765,-529,8037,-12555,13344,-204
23640,-8494,-2049,4285,-13246,17111,-42
23650,-11020,-2447,3645,-12776,18941,670
23660,-13104,-1857,15669,-6615,23572,5263
23670,-6848,-2710,19826,-14,27015,8738
23680,967,-1448,14007,7355,20780,8867
23690,9659,-2237,8176,12871,-8943,1181
23700,11388,-4084,6174,17422,-16081,-1785
23710,8940,-6323,2270,23296,-22956,-4957
23720,926,-23684,-950,30011,-32672,-8386
23730,3913,-32473,3106,29762,-32043,-8416
23740,8566,-32764,5300,27473,-20387,-7257
23750,12020,-32764,4727,25402,-725,-3697
23760,12816,-32764,2993,25925,14811,-1527
23770,6467,-32764,1554,24580,17769,-3089
23780,7890,-32764,1853,24025,19436,-1348
23790,12590,-32764,3615,26502,17518,-1344
23800,12544,-32764,3381,27608,14924,-2871
23810,-1138,-32764,5261,18887,7362,-2463
23820,-3990,-32764,6446,15246,378,3014
23830,-1206,-32764,5326,13445,-1688,7293
23840,-1252,-28051,4772,11965,-990,7342
23850,-3370,-16045,-2824,9373,-4802,8286
23860,-5419,-15531,-4971,9778,-14907,7789
23870,-5121,-13405,-2615,11853,-20773,7106
23880,885,-2084,-4636,16223,-21687,2528
23890,7721,4585,-4284,11890,-18996,1480
23900,13399,11821,-4800,5397,-12991,1597
23910,10181,20658,-7920,-5139,-3289,-1111
23920,4359,21213,-10521,-11030,1417,-1585
23930,2302,20183,-12451,-17979,4721,-1634
23940,470,13609,-8877,-28391,9081,-3554
23950,-2260,7352,-5325,-29097,8780,-4009
23960,-3424,-921,-993,-27651,6954,-3140
23970,-3415,-8281,3607,-25132,5333,-1622
23980,-2847,-23530,25119,-17658,8979,2106
23990,-3675,-32764,32764,-7340,6811,3076
24000,-14077,-29985,32302,28063,-17605,915
24010,-9461,-12536,29470,28658,-4207,5615
24020,-6533,-2774,16016,28570,6307,7188
24030,8468,9508,-32748,-8325,31454,9626
24040,28323,-12357,-27848,-23633,31682,10729
24050,32748,-25943,-17146,-5302,18828,8341
24060,32748,-32764,10073,12265,-13659,612
24070,-10918,-16598,9002,12958,-15577,-10704
24080,-9346,-17878,-13797,-11501,11462,-5262
24090,-6582,-16821,-32147,-25074,29593,-219
24100,-4074,-19133,-29445,-29510,32642,2825
24110,-8436,-32764,30576,-31421,18388,-1576
24120,-7474,-32764,8635,-20165,-1016,-5343
24130,-4873,-32764,-13941,-19957,-10083,-8464
24140,-3663,-32764,348,-28350,-3089,-8360
24150,-3186,-32764,3814,-22282,-7345,-8448
24160,-469,-32750,282,-15216,-19346,-9231
24170,-1840,-32764,8647,-13796,-27500,-7829
24180,1355,-31114,9853,-17362,-21659,-3992
24190,4323,-26834,10208,-16347,-17606,-1553
24200,6135,-20679,10946,-13818,-18126,-1569
24210,6438,-10379,11540,-9438,-21545,-2231
24220,5584,-8069,9550,-8746,-17775,-2090
24230,912,-3275,5639,-10895,-2718,-2671
24240,1221,22,7440,-12037,5667,-1668
24250,-664,3360,8953,-11465,10945,-1729
24260,-8428,-1458,5009,-13553,14438,-1477
24270,-11905,-4110,6540,-14204,14398,-869
24280,-14645,-5080,13001,-12094,16628,989
24290,-5491,-1259,13185,-1236,25834,8447
24300,-834,-819,11480,2993,19110,7308
24310,4741,-3318,10447,7885,4527,4166
24320,8926,-2393,10351,13210,-6478,1451
24330,11483,-3101,5760,24525,-19744,-3660
24340,5722,-9893,-621,27016,-24093,-6493
24350,3230,-25511,-4299,27348,-28442,-7334
24360,2297,-32764,1614,28039,-22549,-6133
24370,9470,-32764,6239,28809,-8363,-2362
24380,14145,-32764,5679,30736,2902,-92
24390,15702,-32764,4941,30531,7813,-1204
24400,9535,-32764,902,20050,17081,-5073
24410,9384,-32764,808,17745,18330,-4082
24420,12542,-32764,288,20842,17784,-2480
24430,-979,-30077,5000,11152,-3351,4525
24440,-2167,-23666,2257,11275,-3222,5267
24450,-4678,-18338,-2427,12036,-4850,5198
24460,-6689,-13820,-3481,11877,-16557,6252
24470,-5249,-10977,-3849,14010,-20035,5699
24480,-1082,-5963,-4846,17584,-22059,3577
24490,3340,2956,-5304,18394,-21424,735
24500,11740,18775,-6768,4604,-9648,-786
24510,9490,21707,-7581,-2240,-5130,-1733
24520,4845,21494,-10410,-7250,-1531,-1743
24530,2227,17525,-11920,-20886,5023,-1148
24540,874,13967,-8943,-25874,7802,-1948
24550,-1731,9021,-5592,-27263,9317,-2478
24560,-3791,2433,-847,-26486,8599,-1548
24570,-4484,-9297,8606,-22329,7404,1746
24580,-2276,-16004,19528,-19354,9365,3014
24590,-2518,-29624,32764,-12497,10447,3453
24600,-10982,-32764,32764,24712,-16756,-1038
24610,-9348,-21965,32764,31495,-4368,3160
24620,-2148,-7352,-996,32177,12031,7749
24630,8461,5586,-32748,15573,23806,8801
24640,32007,-18456,-26755,-14809,29490,7353
24650,32748,-32764,6956,1304,4005,2672
24660,-4238,-17711,8970,17672,-29141,-13609
24670,-11822,-8585,-5648,2380,-6162,-9143
24680,-10892,-12930,-26656,-19227,22230,-4110
24690,-1381,-27377,-13131,-32766,32758,3139
24700,-8354,-32764,26817,-31382,28224,551
24710,-8486,-32764,2773,-21027,8517,-4156
24720,-7039,-32764,-11190,-20797,-5852,-8860
24730,-3984,-32764,-3956,-25557,-7886,-9534
24740,-3165,-32764,5766,-23346,-9785,-8332
24750,-1331,-32401,4127,-18094,-19627,-7810
24760,-1794,-31205,6444,-17604,-28674,-7479
24770,1283,-29447,9139,-20112,-20422,-3598
24780,5305,-25449,8750,-18820,-14311,-1036
24790,6887,-19979,8608,-16324,-12338,-434
24800,8616,-14359,14431,-11090,-15943,-2388
24810,6664,-11333,14152,-8635,-13151,-2396
24820,4670,-8241,11348,-8118,-7052,-1991
24830,-1169,-2427,4166,-11528,1278,-2182
24840,-877,119,6125,-13144,5371,-1495
24850,-6752,1550,7016,-11412,11544,-1383
24860,-10955,-448,5227,-10496,11226,-1008
24870,-14204,-3617,8252,-9979,11682,284
24880,-17425,-4132,14354,-8070,17008,2957
24890,-3131,-2169,11496,2988,25740,8902
24900,345,-2335,8593,5886,16800,6364
24910,3155,-2313,8391,8041,4545,3830
24920,12091,-2081,5881,19297,-12511,-593
24930,10607,-5199,1460,24532,-22450,-4880
24940,1944,-26483,-6504,28014,-32765,-7959
24950,808,-32764,100,27656,-32613,-7744
24960,6124,-32764,6039,27794,-24863,-5593
24970,18337,-32764,6376,29306,6617,-1075
24980,19133,-32764,4312,26783,13077,-2429
24990,15861,-32764,3615,21642,19844,-4165
25000,11577,-32764,-2680,22590,30373,-2056
25010,12005,-32764,330,24868,26227,-546
25020,8834,-32764,3495,24871,20232,-1379
25030,1795,-32764,1396,21961,14927,-2391
25040,-5429,-32764,5749,12042,4024,4675
25050,-3162,-32764,5875,10140,466,7194
25060,-2083,-28708,2982,10363,-2397,7918
25070,-4854,-17002,-2451,11362,-9468,7069
25080,-5928,-15248,-5119,12447,-15298,7328
25090,-5295,-12554,-4601,14262,-21344,7016
25100,1233,-1833,-5761,18751,-22236,2570
25110,5441,6362,-6660,15016,-17911,1488
25120,10445,13881,-7136,7844,-13411,1781
25130,9294,20847,-8553,-3992,-5874,-277
25140,5645,20537,-9955,-8597,-2541,-448
25150,3818,18504,-12053,-14286,747,-485
25160,1735,10958,-7919,-24630,5719,-1967
25170,-1112,5405,-3660,-25204,6133,-2277
25180,-2407,-1499,434,-23535,4986,-1124
25190,-2603,-7489,11838,-21497,3951,284
25200,-1577,-21823,26369,-16181,6324,3391
25210,870,-32764,32764,-6604,4175,4528
25220,-6965,-32764,32764,13488,-10621,1561
25230,-8958,-9596,28106,31222,3414,5799
25240,-2274,7479,-14911,29992,19257,9055
25250,3736,16720,-32748,3561,29881,10114
25260,32748,-24134,-21565,-22297,25245,8916
25270,32748,-32764,24507,-761,-4759,251
25280,6834,-32764,17110,18472,-31100,-14805
25290,240,-18604,-19602,-31101,32651,3822
25300,-806,-32764,9204,-31976,27510,-641
25310,-5390,-32764,-7941,-19026,-14359,-11617
25320,-4376,-32764,-9503,-25053,-11242,-11112
25330,-5930,-32764,-3805,-26569,-6477,-8729
25340,-1883,-30128,3737,-17704,-15758,-6460
25350,-508,-27974,3812,-16281,-23303,-6769
25360,-941,-29492,7007,-18579,-23999,-6975
25370,-2490,-29113,7517,-19704,-19466,-5282
25380,2849,-22722,10907,-16169,-19389,-1808
25390,5575,-20687,11426,-13035,-20181,-1725
25400,4541,-17376,10423,-10657,-19861,-1481
25410,6003,-10132,8072,-8787,-14628,-1222
25420,4353,-7419,6049,-9180,-8245,-1286
25430,3685,-4650,7187,-9968,-4376,-1252
25440,-466,3933,6952,-10851,3448,-2099
25450,-3872,1783,4493,-12331,9889,-2082
25460,-5884,-1220,4157,-12297,12847,-1845
25470,-8836,-2902,7444,-10951,15568,-1080
25480,-11419,-3578,15322,-3037,26453,5422
25490,-5202,-2639,11040,2077,27823,8855
25500,6640,-2860,9826,9244,6173,5301
25510,9881,-3149,8118,14831,-5321,2254
25520,11076,-5492,7194,20383,-15751,-566
25530,4287,-25653,-5382,28944,-30184,-5506
25540,3435,-32764,-5087,28975,-32059,-6552
25550,2722,-32764,-2765,27656,-24707,-5801
25560,13910,-32764,2858,29846,-4568,-152
25570,16861,-32764,4468,31079,-1457,-2000
25580,16939,-32764,4647,27626,3202,-4484
25590,12770,-32764,2945,21745,13092,-5682
25600,12904,-32764,-192,22797,23387,-3328
25610,14494,-32764,2888,27875,22459,-2756
25620,11676,-32764,4042,31705,20372,-2942
25630,3589,-31096,3444,20048,9461,-185
25640,-5099,-31649,-2007,14601,4254,-300
25650,-4066,-29978,3936,11860,-3578,1404
25660,-6500,-19791,-2106,12278,-3228,2191
25670,-7909,-17179,-4417,13869,-11276,3050
25680,-8551,-14746,-2791,13700,-18501,4626
25690,-6182,-11041,-3776,15963,-19980,4479
25700,3348,3069,-6257,17083,-19827,1105
25710,8166,10919,-7272,12436,-17069,-269
25720,11637,17798,-7258,6246,-12528,-1058
25730,4690,23189,-13073,-7019,-2394,-878
25740,1618,21444,-14474,-15290,1940,-26
25750,1444,17916,-11721,-23057,6612,558
25760,-700,9304,-4273,-28010,11789,-849
25770,-2134,3028,268,-27195,13083,-596
25780,-3380,-3072,3367,-25544,13566,560
25790,-2172,-14535,16639,-21253,14453,3050
25800,-3295,-27823,32764,-15340,14865,3337
25810,-2678,-32764,32764,-240,1889,2417
25820,-9748,-22809,31153,28643,-9978,2281
25830,-6802,-12328,18457,27438,5664,6639
25840,5752,-2887,-17833,20850,21562,9753
25850,17742,-10866,-32748,-4524,29993,8463
25860,32748,-32764,-12268,-203,6708,2135
25870,18791,-23544,-2484,11371,-18850,-3426
25880,3562,-7536,6576,16351,-20822,-7209
25890,-10292,-5841,-26031,-9575,6675,-3889
25900,-8602,-15384,-29482,-30003,28210,-1095
25910,-1780,-23217,-20752,-32766,32764,3028
25920,-1491,-32764,6385,-32722,32361,1555
25930,-10613,-32764,-8463,-12956,7680,-7761
25940,-10129,-32764,-13102,-18844,-7130,-10740
25950,-4853,-32764,4118,-22070,-7693,-8962
25960,307,-32155,3661,-15991,-13250,-8223
25970,-377,-29118,1560,-14324,-23617,-8762
25980,-2748,-28795,8224,-17979,-29904,-5863
25990,494,-26398,8193,-16524,-24349,-3500
26000,4214,-23237,9499,-15115,-22444,-2210
26010,8162,-18288,11553,-11607,-21948,-737
26020,5597,-14459,9931,-9597,-20033,-570
26030,6490,-10626,8663,-8294,-18727,-177
26040,5112,-5727,5714,-8051,-14487,-943
26050,3567,1269,10254,-11264,-887,-1069
26060,1676,3149,11039,-12201,7459,-1152
26070,-4532,-78,7202,-13118,14875,-1573
26080,-7871,-3941,2847,-12533,19104,-1450
26090,-12009,-2378,8273,-11147,20729,-831
26100,-14692,-2061,14221,-7412,23674,2399
26110,-2128,-2902,12025,3010,25396,9005
26120,4773,-1900,12614,6837,12034,6596
26130,9962,-2191,10870,12770,-5761,2577
26140,11902,-3919,8200,19129,-19726,-1297
26150,7603,-32764,1505,26694,-20505,-6234
26160,18523,-32764,3242,30987,851,-2524
26170,16556,-32764,5673,27633,5006,-4261
26180,9734,-32764,4457,22692,12734,-5494
26190,7087,-32764,-2156,22416,18384,-4789
26200,11337,-32764,2803,27541,15601,-4662
26210,12747,-32764,5375,28814,14433,-5499
26220,10825,-32764,6136,25694,14457,-5494
26230,3846,-29456,3110,13445,17481,68
26240,-4822,-30458,-2849,10413,10737,489
26250,-4899,-28568,-624,10147,-2101,1880
26260,-4289,-23675,-671,12147,-4628,2111
26270,-5870,-16699,-3602,15927,-12266,2753
26280,-3850,-13157,-3585,15687,-13552,4926
26290,-1724,-7675,-4275,16422,-14026,5347
26300,5396,6562,-5733,14094,-17132,2211
26310,9672,14106,-5042,8579,-14244,343
26320,8572,19048,-5541,2223,-8302,-484
26330,313,18210,-12005,-3922,-2596,546
26340,-1088,16320,-12722,-17497,4690,1162
26350,-878,13630,-9461,-22755,7273,1186
26360,378,4679,-775,-22966,11057,-177
26370,-817,-268,3705,-21227,12212,-225
26380,-2257,-4686,8441,-19172,12527,1060
26390,-2900,-19769,31613,-12358,13314,3973
26400,-1208,-32169,32764,-807,1981,3579
26410,-9537,-31444,32764,19020,-15878,-838
26420,487,-2722,-8114,30432,14371,6714
26430,10454,3753,-32748,7175,28509,6768
26440,24194,-7351,-29310,-16866,32455,5654
26450,30062,-32764,3495,3988,-14186,-3513
26460,1783,-32764,10452,10506,-26236,-12077
26470,-7641,-19060,6089,9163,-1988,-10131
26480,-11501,-10762,-14937,-491,9510,-6089
26490,-10303,-15500,-27135,-24498,22804,-83
26500,-1658,-25757,-12968,-30913,24925,3655
26510,-10303,-32764,32764,-31477,22265,1032
26520,-10839,-32764,-14452,-21543,-7261,-8262
26530,-5798,-32764,-9942,-27042,-12822,-8790
26540,-6472,-32764,-2214,-25939,-12161,-9076
26550,1266,-30347,1463,-14410,-21596,-7805
26560,692,-30470,-1400,-12572,-30964,-8024
26570,4885,-26766,11055,-17168,-32726,-1303
26580,9136,-24361,9775,-15762,-28610,1719
26590,9384,-21065,10934,-15460,-19561,2933
26600,12831,-14072,14723,-14632,-16517,3255
26610,10918,-10315,13949,-10629,-11552,-116
26620,6587,-7991,9189,-9259,-6674,-1662
26630,3547,-6735,8480,-9640,-5000,-2167
26640,-105,2951,5992,-10642,-2591,-3010
26650,-2181,3022,3954,-13008,5406,-2323
26660,-5157,-557,2963,-13267,13393,-2140
26670,-8926,-3507,8620,-10024,19832,-2029
26680,-11543,-2820,13822,-7209,22673,77
26690,-8302,-2898,13783,-2920,25666,4352
26700,-3069,-3034,12497,305,25975,6958
26710,7610,-1610,9916,9951,5512,3951
26720,10616,-2104,7008,16687,-6516,717
26730,11102,-3833,3619,21596,-16727,-2635
26740,2375,-25357,-8145,25153,-28750,-6804
26750,5815,-32764,-4232,24334,-28615,-6855
26760,8086,-32764,143,24485,-18526,-5831
26770,11743,-32764,2908,26930,-3731,-2644
26780,17433,-32764,4714,29258,4906,-1656
26790,13874,-32764,3425,24692,10224,-3427
26800,11467,-32764,421,20855,22691,-3740
26810,13673,-32764,1927,24340,26038,-3674
26820,15762,-32764,5591,27901,27101,-4082
26830,2503,-30320,56,21164,24638,-1861
26840,-4480,-30862,-2609,12915,20250,1062
26850,-6510,-32518,-3421,7938,8645,3303
26860,-2977,-20725,1322,9717,-3573,6172
26870,-5226,-14703,-3887,13063,-4121,3837
26880,-5539,-12985,-6903,13457,-9046,3322
26890,-5311,-11515,-5126,12276,-14547,4273
26900,409,-967,-5262,15750,-19250,2549
26910,3388,7367,-6163,14330,-18557,-183
26920,7360,14882,-6195,8398,-15671,-1264
26930,3340,19631,-7816,-4832,-7811,-1300
26940,29,18512,-10907,-10773,-4769,-59
26950,-179,16690,-10033,-17496,-2214,840
26960,-246,9337,-3017,-24984,4186,159
26970,-1049,3855,1515,-24964,6353,532
26980,-1869,-1676,5967,-23662,7266,1472
26990,-2662,-7640,10916,-21475,8076,2598
27000,-3530,-28817,32764,-11412,10166,4453
27010,-4501,-7493,14295,31943,5883,7787
27020,18092,-1225,-32748,-7257,28186,9416
27030,29424,-20930,-30102,-15553,23510,6636
27040,32748,-32764,2138,-1979,-2298,1435
27050,2516,-19449,7623,18955,-25210,-12013
27060,-3355,-7012,275,14157,-10594,-8642
27070,-7024,-6995,-21547,-5005,3539,-5736
27080,-1985,-19392,-18959,-32535,32717,1720
27090,-997,-32764,1170,-32757,31472,949
27100,-9526,-32764,19116,-28411,14431,-4365
27110,-11168,-32764,-3919,-18229,-9110,-7949
27120,-10578,-32764,-4970,-20708,-12376,-9118
27130,-9286,-32764,4917,-20508,-10180,-6882
27140,-3199,-31373,2353,-17694,-13000,-3746
27150,3820,-26932,2297,-20031,-26182,-3107
27160,5628,-27825,7653,-20108,-26351,-2550
27170,5924,-29680,7018,-16760,-24900,-1684
27180,9673,-20687,11588,-14494,-20514,2018
27190,9653,-18385,12738,-12771,-20341,1185
27200,8952,-14495,12630,-10708,-19035,465
27210,6044,-19967,5595,-7944,-12051,-960
27220,4916,-10437,7968,-9911,-7006,256
27230,437,4542,10115,-11137,16616,-148
27240,-5169,5073,4679,-11146,21776,-556
27250,-9119,1217,1863,-13381,19609,-713
27260,-10776,-446,3287,-13300,15425,-1010
27270,-12706,-1065,12773,-5991,15391,2009
27280,-6502,-3773,13207,-852,17172,5352
27290,-809,-2081,11919,2832,14273,6203
27300,7300,-450,7505,9496,3271,3522
27310,9894,-2200,8770,13645,-2900,1211
27320,12812,-4202,9522,18788,-11333,-1307
27330,10929,-9022,7385,23871,-18636,-4333
27340,10938,-28637,-2879,29619,-21422,-7748
27350,6165,-32764,-1889,26613,-13782,-10341
27360,9307,-32764,1041,24217,-1832,-6259
27370,14246,-32764,2202,28505,8313,-387
27380,9609,-32764,2381,27751,10355,-2754
27390,5902,-32764,1409,25209,14380,-3752
27400,11439,-32764,6280,25175,15256,-4029
27410,13339,-32764,6915,28359,15267,-4623
27420,10657,-32764,7615,24697,14920,-4540
27430,4325,-32764,8728,18807,16907,-2272
27440,-5269,-32764,-333,10801,7006,2351
27450,-6600,-30341,2861,9497,-1776,4208
27460,-9151,-18018,-3455,14037,-6720,4418
27470,-6319,-15814,-3382,13902,-11880,5659
27480,-4995,-14477,-4513,13156,-13397,6485
27490,745,-4161,-4983,12633,-20083,5272
27500,3872,2622,-5697,13380,-21398,2496
27510,7768,10256,-5725,11767,-19895,47
27520,10631,17099,-6683,6381,-14025,-791
27530,4495,20996,-9331,-8578,-2501,-97
27540,535,18515,-11316,-15308,1144,713
27550,315,15635,-9708,-21430,4404,1055
27560,-2007,9095,-3236,-25627,8820,-268
27570,-1888,4700,287,-24744,9052,-247
27580,-1700,-996,3300,-23112,9407,214
27590,-1784,-6319,6346,-21380,9986,1126
27600,-2741,-24039,28821,-14646,12958,3476
27610,-2788,-32764,32764,-3209,4743,3200
27620,-7796,-32764,32764,13321,-11930,111
27630,-4968,-13891,29083,24469,-1286,4411
27640,2311,-5438,1386,26828,10842,6190
27650,13999,-2792,-28268,16358,20471,5487
27660,27915,-32054,-22574,-2217,12183,-2260
27670,24736,-32624,-3774,6327,-9825,-4117
27680,6784,-19366,12901,11488,-22338,-7282
27690,-7829,-4778,-15630,3280,363,-4803
27700,-3123,-18956,-22295,-15372,18161,-3095
27710,3786,-28850,-14037,-27144,31246,92
27720,-1278,-32764,21070,-25307,23866,-4234
27730,-9547,-32764,14813,-21349,3478,-6452
27740,-3675,-32764,-4907,-21899,824,-3131
27750,-1888,-32506,1567,-22832,6284,-3460
27760,-575,-29079,2934,-21263,282,-4615
27770,-2496,-27676,-975,-21408,-16983,-7218
27780,-3561,-31505,7839,-23076,-19062,-7860
27790,-4253,-32764,10927,-21509,-19196,-7460
27800,-2919,-27940,9786,-18915,-16503,-3707
27810,-431,-25091,10294,-15852,-17327,-2975
27820,1596,-21935,10156,-12451,-19776,-2078
27830,9883,-11856,11845,-9190,-25214,0
27840,8981,-9432,9664,-8720,-19472,-840
27850,6016,-6843,6995,-9287,-9890,-1100
27860,6124,-3093,8839,-10643,-1656,-254
27870,-10409,-2801,9335,-8569,12954,-2252
27880,-13504,-3601,10526,-5493,18408,-446
27890,-4367,-3038,12995,3062,24720,6663
27900,-167,-2427,9430,7188,19138,6171
27910,4206,-1517,7453,10447,6333,4262
27920,8710,-4367,9017,14160,-5850,1925
27930,6821,-8650,7294,24462,-24590,-3596
27940,3681,-16272,3624,28257,-30500,-5220
27950,4500,-25623,-1978,29546,-30609,-6292
27960,6369,-32764,1503,26653,-11007,-4677
27970,9691,-32764,3307,27886,745,-648
27980,11054,-32764,4055,29273,4693,399
27990,8816,-32764,4869,28269,6889,-981
28000,2514,-32764,2252,25606,17732,-2476
28010,3369,-32764,-484,27755,15503,-1223
28020,8104,-32764,5379,28471,7590,-213
28030,7485,-32764,5278,25998,11074,-1342
28040,2239,-32764,3437,21441,7689,-458
28050,-2239,-32764,983,17338,-2712,1901
28060,675,-32764,6850,15196,-11537,4339
28070,-998,-26757,1554,16212,-11936,4327
28080,-2576,-22870,2049,14986,-16811,5745
28090,-1608,-14908,-462,15203,-20155,8883
28100,1039,-7459,-3218,16815,-20788,7912
28110,3093,-467,-4990,15224,-19568,5691
28120,13523,12631,-5302,4568,-12294,4277
28130,12890,17787,-6375,-510,-5133,2430
28140,11583,21026,-8542,-5562,834,2349
28150,6789,21148,-10879,-11587,5932,1766
28160,1581,16245,-11791,-22950,11312,-265
28170,174,13742,-9555,-26383,13132,-1145
28180,-734,10474,-6937,-27385,13046,-2180
28190,-46,-1414,-1984,-25149,9863,-3551
28200,388,-7377,2020,-23672,9177,-2646
28210,82,-12413,8358,-21604,8649,-1116
28220,-1191,-19936,21793,-17756,9340,633
28230,-6388,-32764,32764,6659,-9354,-25
28240,-12441,-31162,32764,19902,-19158,-1781
28250,-7257,-17962,32586,21819,-8327,1995
28260,5931,-10369,-6917,20522,22379,6146
28270,11317,-17675,-32748,427,30646,4826
28280,21064,-31878,-32748,-9319,28642,3378
28290,12181,-16766,-15403,9304,-10465,-2205
28300,6190,-5189,-735,13132,-16613,-3902
28310,3493,2681,20827,15032,-22092,-2987
28320,-1057,-12035,-25297,-19536,15860,-4442
28330,2625,-22497,-21757,-32385,32175,-2476
28340,7011,-32179,-14776,-32767,32766,-1163
28350,-8975,-32764,13740,-25851,13106,-8220
28360,-8385,-32764,44,-19513,-7725,-7873
28370,-7732,-32764,-5643,-19512,-3846,-6755
28380,-5291,-31053,2360,-19618,1191,-6287
28390,-4053,-28423,-3360,-18614,-8049,-6498
28400,-4951,-27768,-1883,-20544,-16439,-7141
28410,-4289,-31497,7494,-21377,-22448,-7722
28420,-3321,-30053,8955,-18647,-18393,-4260
28430,-965,-27663,10721,-17756,-16916,-2639
28440,664,-24912,10383,-14556,-18190,-2149
28450,5059,-16713,12431,-10325,-22813,-198
28460,9827,-12813,13069,-8884,-21150,90
28470,6986,-10407,8849,-7919,-13469,-955
28480,5529,-6401,4998,-8676,-5497,-852
28490,2855,1995,9144,-12048,9971,202
28500,-195,4358,8201,-11551,11232,-119
28510,-5360,2530,7307,-10310,7798,-1264
28520,-10465,-4633,10451,-6852,9729,-1647
28530,-11927,-4730,9937,-4506,17826,240
28540,-6718,-2498,7162,-877,23419,6951
28550,59,-3260,10198,4677,17826,7716
28560,6169,-3032,7923,9418,6100,5723
28570,10644,-2643,7631,14643,-7603,2009
28580,10224,-9282,7145,26393,-26428,-4287
28590,6594,-18116,1260,30328,-31814,-5738
