timestamp, ax, ay, az, gx, gy, gz
0,-8193,-2242,15066,-1502,50,-473
10,-8506,-2210,14682,-1633,541,-119
20,-8193,-3159,15994,-6113,4733,726
30,-8930,-5972,16844,-5041,5031,1581
40,-9889,-2620,13996,558,2206,-835
50,-8363,-2458,12569,-277,2293,-260
60,-8689,-2991,13518,-623,2669,-294
70,-9115,-2835,13521,-444,2956,-153
80,-7718,-1673,12706,-765,2003,-376
90,-8239,-2675,13470,-1283,2690,-37
100,-8526,-2721,13630,-1003,2698,-130
110,-8683,-2837,12937,-866,4339,-95
120,-7777,-2217,12310,-1335,5474,-388
130,-8793,-2885,12847,-2537,8183,-212
140,-10153,-2146,12708,-2604,9104,-363
150,-9790,-2487,13547,-2293,6510,-556
160,-9739,-2827,13743,-2204,5686,-261
170,-10071,-2409,13225,-1846,5062,-72
180,-11545,-3178,14573,-1049,3239,274
190,-11113,-3094,14107,78,1608,243
200,-10720,-3049,13528,628,602,519
210,-10731,-2851,12856,1090,-297,549
220,-10191,-2804,11433,1303,-613,800
230,-10192,-2641,11041,938,-392,765
240,-10250,-2808,11219,490,-162,664
250,-9741,-2432,11973,-55,678,518
260,-10153,-2699,11638,-143,1624,538
270,-10508,-2436,11372,-306,2315,294
280,-10890,-2326,11964,-642,2425,321
290,-11189,-2818,12428,-548,1825,205
300,-11391,-2749,12097,-230,1522,356
310,-11975,-2916,12010,386,544,418
320,-12303,-3099,12902,1016,79,383
330,-12667,-2759,13518,2058,-368,388
340,-11603,-2009,12777,3236,-666,772
350,-11767,-7443,17109,6332,0,1777
360,-11567,-4432,15117,11516,671,3080
370,-9445,-31,7971,15811,1546,4473
380,-11101,2931,5398,-4895,2942,1267
390,-14218,-2459,13492,-15436,-1984,153
400,-12862,-6800,18955,-11591,-14724,-2366
410,-3282,-8104,16649,9050,-18561,-2456
420,-2634,-6037,9871,14468,-9244,-1833
430,-6097,-3200,8883,13491,-3865,-3314
440,-6929,-2691,12289,9040,-3272,-4393
450,-6544,-3646,14172,8190,-2953,-5525
460,-5609,-3313,13778,9999,-2804,-6198
470,-4025,-2132,12408,11559,-741,-6575
480,-6501,-1137,15950,8598,7644,-7519
490,-9651,-856,16677,7644,9286,-7771
500,-11976,173,15565,7536,8521,-7052
510,-10353,1351,14315,5770,5914,-3539
520,-7391,735,14492,5849,7486,-1985
530,-5522,166,14472,6814,10866,-1959
540,-8756,60,13006,6683,16924,-5313
550,-9399,75,12376,5601,19265,-5591
560,-9636,680,13117,4089,20125,-5692
570,-10375,1998,12646,250,21767,-7218
580,-11830,2055,13092,-1787,22887,-8292
590,-13471,104,14518,-1490,23625,-8458
600,-9398,-3828,16746,3063,23145,-7996
610,-13174,-2480,13987,17470,19618,-13020
620,-21100,-4176,7363,20590,12813,-18551
630,-20393,-6117,6369,20814,9754,-20226
640,-30089,-5191,-4763,11370,14509,-11757
650,-23115,-6096,3862,4840,14719,-550
660,-13504,-2764,3443,3143,12823,7932
670,-11600,-1119,2677,1160,13322,8717
680,-17734,-1790,4908,-348,11259,5393
690,-17824,-1003,6677,955,9714,5865
700,-16906,-782,8586,2893,8387,5654
710,-17564,-4383,8866,11437,10317,10025
720,-15530,-2589,8125,15537,13614,16414
730,-15273,2389,7341,17681,11704,26419
740,-11423,13128,4554,17026,4875,25373
750,-5393,13108,9864,13589,-1099,15154
760,-17945,6340,9077,10010,-6386,2609
770,-13014,4239,10017,8079,-10313,4401
780,-10244,2596,12199,8365,-6355,6687
790,-11220,2890,11500,11880,1195,9523
800,-12386,5478,1801,22422,3436,13331
810,-12074,5741,565,24547,283,14809
820,-11734,6525,922,25969,-2909,15781
830,-13783,8544,1759,31860,-7031,15171
840,-13020,9449,938,32763,-8015,15405
850,-13186,9518,-274,32765,-7777,15803
860,-13392,9351,-1712,32766,-6643,17465
870,-13775,9306,-2113,32766,-6496,17910
880,-14431,10216,-2124,32765,-6777,18125
890,-14818,9518,-2216,32766,-7556,18033
900,-16760,6125,-5142,32766,-10576,16288
910,-19240,3809,-6042,32765,-12330,14087
920,-22473,1518,-5529,32766,-13614,11198
930,-27063,-3035,-2675,32766,-13298,5572
940,-27945,-6834,-395,32765,-13510,265
950,-23859,-11946,5672,25867,1410,-20740
960,-20265,-7705,2026,10556,14950,-14975
970,-18962,-4917,1794,3835,14614,-14650
980,-19582,-4056,2657,-1946,11839,-17011
990,-18811,-1076,-231,-8394,6524,-18863
1000,-20606,-695,-1487,-11136,4436,-19320
1010,-19139,1012,-3869,-13957,3118,-18388
1020,-18824,3694,-7267,-20974,7127,-16123
1030,-17276,6284,-11716,-21514,9407,-14344
1040,-16616,9877,-12259,-19357,9158,-13699
1050,-11468,10844,-9318,-16870,7073,-13261
1060,-10788,10595,-9513,-9156,8158,-16191
1070,-10609,6873,-9639,-4560,7339,-15201
1080,-7728,3375,-9491,-1281,6804,-11231
1090,-5952,349,-7930,-1732,6240,-8388
1100,-6223,2983,-3361,-5232,2248,-6212
1110,-7556,4637,-1613,-5080,-3140,-4547
1120,-7102,7482,-4175,-2627,-10771,-2189
1130,-11374,11565,-7761,1164,-24221,867
1140,-13729,14016,-6291,4237,-30332,-1382
1150,-20670,10574,-7218,10641,-32375,-3635
1160,-21401,8396,-10793,18548,-32676,-368
1170,-20499,5731,-7784,27559,-32766,5243
1180,-19396,6716,-5801,31666,-32766,5736
1190,-23123,3339,-2709,32086,-27923,-773
1200,-20387,5246,-3599,26566,-17994,-3677
1210,-20089,10117,-2491,19782,-12684,-5385
1220,-19702,16144,3789,16521,-3549,-6424
1230,-19527,19393,8164,16152,-1519,-6940
1240,-18849,19568,9417,16090,-2633,-8007
1250,-18182,14601,8969,13198,-1126,-12941
1260,-18740,10702,9738,10692,-1003,-14167
1270,-23440,11816,9178,9923,933,-10849
1280,-17399,15042,4217,8119,6080,-4039
1290,-15175,8178,3747,-5945,4979,-10774
1300,-16676,5261,29,-5088,-273,-19413
1310,-18347,4005,-5160,-637,-1602,-22307
1320,-13802,-6469,-2787,-7436,7392,-10467
1330,-11060,-7643,341,-6605,12033,-3523
1340,-9419,-8204,-582,-1881,9700,1214
1350,-7892,-11072,-1915,5559,-5788,1017
1360,-9753,-14848,-6562,19660,-32550,2297
1370,-15928,-19039,-5960,22227,-32766,4660
1380,-17645,-21184,974,22649,-28895,6604
1390,-15474,-20284,4096,23201,-24983,5243
1400,-14623,-17297,6204,23690,-23307,4418
1410,-16311,-11789,5768,23960,-28740,491
1420,-17359,-8999,4194,23547,-31274,-2606
1430,-15002,-6706,4222,21217,-30968,-4192
1440,-18784,1427,297,18691,-27067,-5413
1450,-14634,4300,-2893,10659,-14704,-2133
1460,-14596,5105,-2362,7849,-5986,-1152
1470,-12253,7284,-2263,8197,326,-862
1480,-10889,9869,-634,13990,3295,906
1490,-10403,11160,-36,18425,1108,3131
1500,-12365,12376,596,22437,-3003,3827
1510,-9691,15214,4845,26006,-12776,5579
1520,-12001,15342,9245,26331,-17812,6027
1530,-13556,15950,9678,29732,-19114,7236
1540,-12935,14865,15965,31661,-10956,9047
1550,-20653,11746,16968,13710,9737,9996
1560,-20890,11711,18955,3839,5495,1881
1570,-21210,12001,16991,1335,1475,-5512
1580,-12824,12401,7408,-2981,1759,-10025
1590,-12716,11329,4299,-7234,9094,-8894
1600,-15195,8691,5776,-10805,14715,-7196
1610,-2074,9868,-554,-12567,23333,-7087
1620,-5342,8390,3748,-14537,32084,-6576
1630,1621,3359,5079,-14121,32511,-3378
1640,-4967,4594,9143,-5961,8305,-5385
1650,-4031,4594,9111,46,-10716,-7680
1660,-7509,4887,8073,6286,-22602,-9260
1670,-7434,2247,7215,16524,-32690,-4680
1680,-4388,1479,5634,20533,-32396,477
1690,-6813,2104,3054,23698,-27709,5754
1700,-6243,5343,-1361,24603,-22302,11838
1710,-11995,12366,-3913,15122,-16578,19785
1720,-2421,18304,-6960,4483,-19201,21259
1730,-6164,23029,-7555,-12420,-16342,15472
1740,-19120,17141,14290,-32766,-31145,-6507
1750,-32764,6295,28275,-32767,-32766,-19806
1760,-27830,-4961,32764,-30224,-28181,-16183
1770,-23648,-5805,32764,-11897,-587,-5759
1780,-15855,-6316,15577,1512,26133,3702
1790,-14227,-4936,16748,-3922,19735,-1299
1800,-17271,1086,13133,-4012,12661,-4971
1810,-14569,973,13680,-4971,-3965,-3474
1820,-15796,1777,12003,-5009,-13506,1147
1830,-12722,271,12684,-3533,-14752,1898
1840,-12235,-850,11905,1886,-13689,436
1850,-9574,-2219,11525,3984,-14564,-2
1860,-7569,-2203,11383,5986,-14725,-1066
1870,-3466,-2242,4772,3808,-8045,-7666
1880,-4710,-1844,3921,554,-1257,-12386
1890,-3773,-1210,3299,-2718,5104,-15889
1900,1292,-1204,3542,-5922,11821,-20478
1910,-8346,-921,5493,-10442,23802,-32255
1920,-26466,-1047,4335,-11666,22764,-32668
1930,-32728,-3002,7713,-12515,18713,-26662
1940,-14258,-10814,18321,-6918,12638,-5674
1950,-15913,-10154,19331,-1321,8712,-6880
1960,-12792,-7458,15174,2389,3046,-7321
1970,-11196,-5587,12521,2512,1930,-5138
1980,-13016,-3450,10402,-1223,3975,-2657
1990,-13746,-3778,9929,-1938,4560,-2814
2000,-13433,-4117,9144,-1602,5135,-3612
2010,-14539,-4517,9910,-1528,5567,-4904
2020,-17288,-3997,11724,-2055,3489,-6726
2030,-16392,-3487,11373,-771,1174,-5694
2040,-15355,-2571,10642,500,-1100,-5456
2050,-16537,-1248,9432,758,-1098,-5108
2060,-10949,-1033,9465,18,-1280,-3469
2070,-5237,-737,5984,-4961,6755,-2640
2080,-11475,-2698,6892,-8544,10635,-3017
2090,-14253,-3208,8100,-9754,10246,-3110
2100,-14737,-2527,9395,-8953,7494,-2415
2110,-10446,-3373,8269,-5823,-1241,770
2120,-11183,-4167,7525,-5422,-2533,2056
2130,-11717,-4915,7610,-5552,-2028,2421
2140,-11036,-6829,7695,-3923,-787,2445
2150,-11047,-8020,7990,-2930,172,2217
2160,-11734,-8584,7995,-1882,1065,1993
2170,-10111,-8489,6712,30,3979,1463
2180,-12228,-7237,1455,223,8751,2072
2190,-18377,-8603,-2259,-2822,16107,5229
2200,-23065,-8381,-4259,-9199,22843,10415
2210,-3956,-13774,16639,-19703,31899,20034
2220,-8443,-14521,16278,-10569,31254,11069
2230,-16778,-13120,11139,-1428,21695,1236
2240,-19254,-7741,5800,5906,10777,-1635
2250,-18543,-4416,2771,6128,8881,-2574
2260,-16761,-3913,3218,4047,6332,-3691
2270,-13167,-4795,3118,4450,3415,-6251
2280,-13391,-4690,3067,5374,4114,-7355
2290,-14779,-4190,3300,5692,5090,-7680
2300,-14745,-3314,2963,5161,5535,-6221
2310,-15257,-2802,2842,4035,5439,-5705
2320,-15216,-3365,3390,2422,4558,-5383
2330,-14463,-4978,3006,1794,4769,-5020
2340,-14936,-4988,2245,1999,5845,-5035
2350,-15119,-4142,1106,1604,6650,-4624
2360,-13632,-4798,905,422,8287,-3316
2370,-13327,-5359,2566,134,12274,-2673
2380,-14135,-4639,2157,1354,12903,-3632
2390,-14968,-4417,958,2175,12468,-5044
2400,-15966,-5117,866,841,14448,-5107
2410,-16696,-5792,1552,69,14782,-4906
2420,-16429,-6867,1921,-31,13469,-4673
2430,-14808,-7334,1459,493,11932,-4069
2440,-14612,-7961,411,1055,9590,-3749
2450,-14441,-8168,10,925,9106,-3458
2460,-14730,-8386,-181,216,9289,-3438
2470,-14822,-10347,359,-516,10235,-3019
2480,-10128,1317,-32591,-2258,12667,-2455
2490,-14214,-7811,-8738,-31874,30365,6286
2500,-13387,-8508,-3960,-24728,15919,2297
2510,-17235,-9548,448,-10475,1313,-26
2520,-14965,-16232,14465,-2304,-2053,1731
2530,-13689,-18269,6028,-8883,5393,4936
2540,-18502,-10683,-5977,-3593,6905,3024
2550,-17572,-5183,-7748,-1199,1026,2979
2560,-14362,-9585,-2029,-4529,-2560,3703
2570,-11991,-9865,-4010,-3312,-2688,3731
2580,-11900,-7973,-3882,-2850,-2996,2736
2590,-12197,-4079,-5296,-2435,-2555,1717
2600,-14168,-7473,-3518,-2848,-2021,1403
2610,-12256,-8547,-4846,-1662,-1500,847
2620,-12484,-7137,-4810,-98,-1887,-39
2630,-15101,-6254,-4844,1700,-2145,-262
2640,-15401,-6467,-4802,1965,-2067,-35
2650,-15511,-4632,-5141,2044,-2044,38
2660,-16181,-8377,-3414,605,-1318,2092
2670,-16196,-7445,-4137,1871,-2343,644
2680,-15961,-7095,-3825,2495,-2960,268
2690,-13333,-5914,-4513,2433,-2481,839
2700,-13953,-7970,-3470,1944,-1934,1401
2710,-14141,-8475,-3537,2157,-1454,2435
2720,-12913,-6217,-1855,3579,-2251,1072
2730,-13418,-6957,-1941,3463,-2182,1357
2740,-13132,-6701,-1246,3433,-2469,1248
2750,-23431,-11267,2224,3464,-1695,745
2760,-16763,-11522,-1601,5900,-2365,5434
2770,-17217,-6086,-13,7983,-2756,8842
2780,-9821,-9732,3653,9484,-5506,3126
2790,-10462,-10510,5028,11642,-4868,1597
2800,-9342,-10127,5669,15910,-4645,2884
2810,-9235,-6627,-655,26157,3065,2459
2820,-14243,-1524,-9106,26498,9022,2766
2830,-15535,1351,-13153,20035,14091,5886
2840,-5823,1366,-10000,10474,15837,9368
2850,-8286,-2529,-1782,-7233,8004,4760
2860,-16500,-5962,3067,-7060,8101,1832
2870,-20916,-8592,3186,-2378,3203,1557
2880,-18495,-9582,-1227,4494,-4431,487
2890,-17680,-11242,-72,2317,-237,899
2900,-17544,-12840,1404,35,2376,2322
2910,-13689,-7878,-492,-35,1306,4034
2920,-11435,-7012,-913,737,963,5820
2930,-10393,-5875,-1883,979,1177,5969
2940,-9267,-3771,-2813,1023,3118,5683
2950,-9520,-2612,-3706,1178,4700,5754
2960,-9695,-1316,-4580,1162,5981,6164
2970,-9678,-1311,-4257,753,7152,7327
2980,-8894,-1571,-4681,839,6545,7272
2990,-8660,-2195,-5333,706,5482,6250
3000,-10738,-3168,-6045,303,4718,4617
3010,-16730,-5031,-8767,-937,5069,4151
3020,-19108,-6322,-9186,-1596,5398,4821
3030,-21942,-7458,-9461,-1073,6189,5802
3040,-32046,-9565,-8849,3414,7681,13115
3050,-32764,-10350,-8592,7235,4140,18444
3060,-32764,-11227,-8539,11745,2295,24161
3070,-32764,-12086,-2842,15541,3855,29831
3080,-32764,-9865,-2098,21229,-3357,32766
3090,-32764,-2457,-5899,22624,-10773,32766
3100,-32764,4352,-6900,19593,-13246,32610
3110,-32764,12879,-3125,7964,-14938,23251
3120,-32453,14129,-775,4278,-15978,15947
3130,-26561,12245,2898,2648,-18636,8711
3140,-21527,4547,2528,1889,-24864,-5151
3150,-13653,421,4012,236,-26228,-5126
3160,-9809,464,3016,-53,-22509,-4677
3170,-9722,4997,-297,-3455,-7381,-6825
3180,-12119,5061,-729,-6622,1333,-7228
3190,-9200,2990,1264,-8689,9131,-5033
3200,-4072,1374,582,-6126,16564,-3655
3210,-1172,804,-473,-4319,15197,-5013
3220,365,157,-492,-3634,10407,-7466
3230,1675,-167,-1567,-3092,4778,-10501
3240,640,-234,-1757,-846,2478,-9085
3250,565,-655,-1302,388,1653,-7024
3260,-254,-822,-1054,2262,337,-4869
3270,306,-1183,-7,7168,-605,596
3280,552,-1437,800,8952,-3408,1406
3290,478,-1858,1832,9664,-8153,567
3300,-763,-1176,3379,9193,-14304,-1768
3310,-1318,-816,4142,8885,-12823,-1427
3320,-1338,-357,4128,8337,-9389,-309
3330,-1169,1705,425,6985,-5030,1036
3340,-3120,7302,-13393,-2254,6341,4860
3350,-5896,5781,-12787,-11098,10757,7082
3360,-5928,2727,-9045,-16323,14908,9489
3370,-27576,8930,-14448,-13864,22908,13148
3380,-32764,13689,-17405,-7238,18726,19592
3390,-32764,14697,-12841,-8041,7857,28053
3400,-26429,11790,-8541,5023,-24796,29373
3410,-19737,18297,-12483,11402,-30833,8722
3420,-29044,20372,-10156,7972,-20115,-11670
3430,-32764,6210,4249,-1913,7387,-23679
3440,-32764,-1120,5735,2679,8398,-26995
3450,-32764,-6525,3703,8712,2551,-29444
3460,-32764,-8721,-376,11822,-3165,-31317
3470,-32764,-14033,3266,8739,-12637,-27134
3480,-32399,-14448,5903,7885,-16514,-21333
3490,-25518,-12530,4613,8442,-17790,-15437
3500,-18131,-5449,181,7788,-5794,-9117
3510,-17961,-1769,-1430,4757,-1391,-7494
3520,-15971,254,-920,1494,-356,-5013
3530,-13141,2906,-2391,673,491,-2321
3540,-7144,6082,-5215,-846,6623,2094
3550,-5390,6096,-3442,-1633,10608,2724
3560,-5003,6031,-1867,-666,11717,2794
3570,-3311,3531,5881,4426,6137,6786
3580,-1323,1939,7165,9463,765,10190
3590,-20,754,5431,14426,-5372,13279
3600,-372,-644,-296,13807,-13532,19392
3610,1424,-650,-4346,11868,-17211,22237
3620,3655,-2991,-2350,5975,-2499,28277
3630,2409,-2349,-2892,7551,3291,26444
3640,3516,-2264,-4123,7185,3030,24691
3650,6090,-1888,-5607,6303,3488,22030
3660,5137,584,-11747,5530,14800,13376
3670,1015,3598,-17340,2908,20463,7652
3680,-7698,4152,-19837,-3302,22011,3057
3690,-13077,3328,-19379,-10202,17392,2357
3700,-13103,6627,-22727,-12875,5003,2454
3710,-15531,14386,-25184,-11874,3872,8437
3720,-24634,32748,-29207,-13745,-4291,-7033
3730,-32764,32748,24550,-25942,-27688,-32658
3740,-32764,6413,32764,-5204,-16680,-16063
3750,-32764,1413,27023,27020,-13212,15059
3760,-31569,12868,-514,26707,-18604,6064
3770,-23017,10687,8635,8791,-14336,3968
3780,-18325,12033,10078,-104,-8609,2993
3790,-14882,12222,7955,-2386,-2220,3717
3800,-13702,9794,3473,-4850,6022,1399
3810,-14027,8175,1940,-6075,6858,-1280
3820,-11495,6223,1018,-7199,6977,-3280
3830,-6397,2876,776,-8042,8306,-6532
3840,-535,240,2623,-7479,8097,-6481
3850,8452,-5063,3236,-6352,-4411,-9150
3860,10052,-6379,4433,-7234,-13301,-11076
3870,7956,-5811,2818,-7025,-15900,-10926
3880,6136,-1399,-2103,-5840,-9714,-4152
3890,5145,868,-4518,-6212,-6552,-2563
3900,2665,1760,-5924,-6988,-3467,-3204
3910,-534,2564,-3425,-6968,3024,-5175
3920,-768,3334,-741,-5195,3182,-5692
3930,-1840,3488,1284,-2513,2107,-5817
3940,-3357,1172,3188,-488,3100,-4881
3950,-5934,-3518,6735,1684,8402,-2703
3960,-7687,-4203,4762,2441,7952,-2646
3970,-8441,-2154,-1033,2396,5147,-2222
3980,-9075,1428,-7274,1410,3075,-561
3990,-15824,8992,-19378,-2121,5769,7965
4000,-20786,10335,-19687,-5216,10268,15080
4010,-27388,12734,-16633,-3801,16567,23048
4020,-32764,24828,-13022,7532,11025,30876
4030,-30973,25451,-8302,7356,-1183,25422
4040,-32764,21129,4063,6644,-9676,12677
4050,-30963,18871,7354,9789,-18088,-809
4060,-24688,16311,-1794,7430,-11555,-14755
4070,-32291,12186,1681,1574,-223,-19813
4080,-32764,1992,8495,1211,4446,-21600
4090,-32764,-780,7032,4522,-2472,-20091
4100,-32764,-3023,6889,5235,-9644,-17459
4110,-29520,-3340,8931,3751,-14431,-11369
4120,-22976,-2208,7195,3746,-9533,-7179
4130,-18713,-1168,5293,3232,-3676,-4095
4140,-17211,292,2727,1365,-1241,-3377
4150,-11933,1540,1641,-3880,162,-2440
4160,-10026,1311,451,-2774,3501,-1825
4170,-8969,3483,-1608,1045,8357,-375
4180,-5628,5078,-1374,7277,13256,4685
4190,-3217,5112,-730,9429,11405,6758
4200,-2084,4140,1654,10833,9128,9715
4210,-245,1970,2883,11705,5799,13901
4220,8747,-1498,3012,8583,-5962,19699
4230,16054,-4772,3021,2086,-10853,21150
4240,16007,-6289,245,-1174,-4147,17927
4250,149,-3912,-1800,2524,11346,4891
4260,-709,-2905,-3664,5752,10079,2931
4270,529,-2145,-5963,7820,8050,2104
4280,-1153,20,-7479,7516,7516,2038
4290,-1500,848,-5571,1543,1883,3710
4300,-613,1170,-6597,-295,-1290,4626
4310,-3683,6607,-17568,-3860,2218,5805
4320,-8092,5473,-17014,-8356,6828,6621
4330,-12552,6148,-14846,-10574,4858,5443
4340,-14750,25708,-21386,-11732,-22200,-17286
4350,-30030,32748,-16794,-19642,-27117,-31661
4360,-32764,32748,1079,-26404,-15299,-32760
4370,-32764,18986,28959,-20176,-4891,-21308
4380,-32764,14233,17937,26796,548,12364
4390,-32764,10860,12400,29051,-4754,5122
4400,-32323,7505,9269,21949,-9955,4064
4410,-26890,7863,4575,3592,-10536,3510
4420,-24365,10354,5321,-4347,-8058,4175
4430,-21317,11559,5075,-9445,-5047,3938
4440,-18690,11579,4329,-11440,-1222,2176
4450,-12955,9508,3239,-10131,4045,-272
4460,-9532,8352,2641,-8660,4377,-567
4470,-6156,6449,2273,-7813,3856,-616
4480,3536,1912,668,-6550,1985,-1489
4490,5713,-553,-331,-6724,-675,-3519
4500,6333,-2358,-2802,-7976,-2488,-4791
4510,6937,-4864,-1397,-10601,1189,-4747
4520,5380,-3718,-1997,-2599,6851,-13016
4530,5905,-3013,-2388,-1416,2679,-17826
4540,2977,-1007,-3609,-2632,-2930,-23920
4550,679,-199,-2675,-3969,-3069,-22199
4560,-1072,-225,520,-4255,-2632,-17367
4570,-3837,158,4235,-2370,-2412,-10988
4580,-3044,-3711,9149,2906,-6623,-1020
4590,-1084,-3239,5551,4516,-7658,-1264
4600,-3576,-175,-3391,4852,-3739,-2207
4610,-6166,2922,-11088,1592,1747,-900
4620,-6855,3781,-21398,-11577,18884,8816
4630,-25306,2495,-18248,-15744,30754,14689
4640,-32764,5022,-14518,-10932,32243,25236
4650,-32764,11765,-16136,14648,-18757,32765
4660,-14957,32748,-20483,17065,-32114,32658
4670,-19855,32748,-4595,6731,-32064,17696
4680,-32764,15544,12893,1743,-10185,-30257
4690,-32764,4776,18654,4654,-2740,-31595
4700,-32764,-38,19024,10351,-1263,-26847
4710,-32764,-179,12665,15998,-4446,-20186
4720,-30780,1846,7480,16365,-11850,-9302
4730,-23119,2093,6003,9421,-12348,-7850
4740,-21502,-1352,7609,-3249,-4696,-6120
4750,-19092,-1070,4552,-3910,-4783,-5739
4760,-16633,482,797,-3457,-3195,-5640
4770,-12722,-197,-910,-1390,4847,-4338
4780,-10860,1862,-2495,1607,7048,-2734
4790,-7049,3068,-3779,3612,9882,690
4800,-3836,3437,-3041,4605,12180,4233
4810,4514,1942,6986,8547,14568,10828
4820,4765,3654,7813,11597,16098,15362
4830,7611,1537,7046,8417,14238,24140
4840,6236,-6014,16,2977,8785,29268
4850,10331,-4188,-4763,8401,2997,22601
4860,11531,-5217,-5347,9500,918,14185
4870,11012,-6622,-5463,8587,1375,5568
4880,3131,-2230,-8951,5245,2870,-6007
4890,213,-1238,-6363,735,2485,-5340
4900,439,-776,-4002,-1958,-541,-3219
4910,1922,2280,-6725,-2641,-5640,-223
4920,2126,3802,-11184,-4625,-5313,416
4930,-708,4858,-15886,-8142,-2081,657
4940,-3550,4400,-18830,-12323,2000,664
4950,-13743,3222,-13527,-14360,-928,-2086
4960,-15126,12864,-18553,-10161,-16792,-9196
4970,-32764,32748,-8204,-24798,-32766,-32380
4980,-32764,23487,29471,-29062,-32476,-30221
4990,-32764,14515,32409,-6693,-19387,-6225
5000,-32764,948,23453,18763,9546,10141
5010,-32764,-2151,16198,28398,-4327,540
5020,-32764,167,7590,23328,-15457,2237
5030,-30120,5971,7728,12639,-15483,5938
5040,-31057,16046,8655,2555,-7142,9763
5050,-26033,15697,8215,2041,-6142,8124
5060,-21364,12869,7908,2073,-4998,3928
5070,-15756,9564,6329,1989,-2300,388
5080,-13329,6558,2339,-3672,9037,-1226
5090,-9270,3870,515,-8467,8382,-958
5100,-3423,630,-837,-12276,4883,-1656
5110,9654,-4300,2334,-10995,7263,-1266
5120,11210,-4965,1868,-6249,6678,-3129
5130,10851,-4685,99,-2072,3313,-4471
5140,10868,-4964,-970,-1045,-445,-3771
5150,14210,-3851,1167,-4483,-7316,-900
5160,8315,536,-520,-4933,-6126,-1869
5170,4209,1349,-1833,-5288,-4040,-3076
5180,2287,442,-1925,-6135,-1909,-2971
5190,-2811,1496,-2925,-5987,3174,-3723
5200,-4488,1743,-1653,-5699,5013,-4084
5210,-6988,2374,3467,-1897,9294,-3805
5220,-8484,2072,6557,406,10673,-3356
5230,-8983,-574,10001,2301,10968,-2899
5240,-11043,-6515,12855,6688,9151,-2445
5250,-11908,233,1606,7224,1897,-1675
5260,-13601,4955,-8623,4162,-7370,994
5270,-10425,9356,-19027,111,-9106,7415
5280,-26469,20796,-30243,-12873,25312,27263
5290,-32764,32415,-23620,-15276,32739,32673
5300,-32764,32748,-19917,-10152,29123,32754
5310,-24612,32748,2217,2420,-20656,13279
5320,-23244,27747,751,9124,-31288,-10161
5330,-18257,19138,-886,7017,-32230,-24616
5340,-20856,13426,1349,-1167,-26188,-31514
5350,-32764,1652,20479,-11039,-7091,-30555
5360,-32764,-5226,23913,-2774,-5424,-22725
5370,-32764,-7829,24192,7876,-8640,-16016
5380,-26907,-2387,14047,16401,-6773,-6425
5390,-20384,-704,9432,12137,-1798,-5215
5400,-17560,-1200,9424,4741,314,-5915
5410,-16220,-1311,11062,-1571,-1477,-6724
5420,-6701,4054,-3751,993,16362,1070
5430,-5382,3831,-4330,2144,24909,4006
5440,-3997,1860,-2166,7844,26577,10504
5450,-3155,304,-914,10812,21406,14995
5460,910,-1405,1133,11561,13711,19114
5470,10374,-4268,-680,9679,5439,20875
5480,14943,-4915,-2185,6747,-6279,9681
5490,14399,-5142,-2740,5981,-7503,-481
5500,12911,-4929,-3516,5741,-5030,-9104
5510,5270,-2718,-7061,3878,5205,-16606
5520,2108,-2136,-7000,820,8358,-14388
5530,663,-2234,-5923,-2127,8852,-9735
5540,701,-1693,-4747,-3839,6803,-4927
5550,3245,2065,-5841,-6969,-301,151
5560,914,2636,-11118,-11424,-5175,-2063
5570,-1972,3464,-16551,-13532,-5620,-3072
5580,-5988,3751,-22189,-16442,-4426,-3450
5590,-25046,938,-19693,-17419,-7355,-5634
5600,-32764,29655,-17671,-12615,-23299,-6771
5610,-32764,32748,8411,-17413,-32554,10250
5620,-32764,32748,32764,-9534,-32734,20907
5630,-32764,17282,32764,26714,-4208,-615
5640,-32764,7811,29181,32581,-23055,-6074
5650,-15843,563,11341,18626,-12538,-4819
5660,-18053,2111,10983,7187,-3287,-2007
5670,-17376,6030,11876,-1881,-4217,2338
5680,-8719,11048,8617,-8952,-4079,6739
5690,-6907,8862,6431,-9782,5236,5317
5700,-8195,6343,3380,-10018,15082,1622
5710,-8834,5478,1897,-10746,22400,-2312
5720,-8613,1879,4319,-14197,24971,-2588
5730,-4192,-1124,4582,-13520,17441,-1280
5740,-403,-2693,3110,-9457,9053,-515
5750,2429,-3403,-110,-4205,3228,198
5760,10462,-5061,-2318,2060,1081,1625
5770,11975,-4738,-1125,2692,-1533,-1018
5780,10073,-2973,-4353,2470,-1880,-3573
5790,7279,-2708,-6893,-2704,8576,-4042
5800,7582,-3951,-5439,-3939,13597,-4803
5810,5644,-4585,-4424,-3057,16511,-6934
5820,161,-2359,-4512,-1100,14968,-8865
5830,-3055,921,-2421,518,336,-5815
5840,-2874,779,200,697,-4799,-3609
5850,-1174,-68,8670,1640,-5938,-1819
5860,-2205,192,6882,7422,7241,-94
5870,-4915,-542,5280,6456,12089,-62
5880,-7834,3608,-9705,2107,-823,-1052
5890,-6139,6192,-19577,-2101,-6966,1953
5900,-6945,7630,-25878,-8883,-843,7537
5910,-17942,9530,-26107,-14913,16629,15709
5920,-32764,30051,-17490,-12631,28993,32232
5930,-32764,32748,-7658,-10894,13317,32766
5940,-32764,25614,20153,-5274,-3273,32519
5950,-28433,23334,-5475,24034,-32735,-5082
5960,-31715,20832,224,11719,-32452,-25425
5970,-32764,10680,19588,-286,-26578,-32565
5980,-32764,8157,23593,1466,-21302,-32767
5990,-32764,-1472,29279,9456,-14023,-30345
6000,-32764,-6650,32764,14526,-9490,-23968
6010,-28605,-4224,27210,22475,548,-16706
6020,-18241,582,8512,28150,16479,-10245
6030,-21397,154,3936,14969,24568,-1309
6040,-17178,-223,1218,1675,9983,137
6050,-15041,-222,3444,-10374,-7616,-1223
6060,-3360,45,3324,-12812,-9403,1854
6070,-2455,3657,-2819,-5063,6628,1481
6080,-4872,6399,-10250,6147,31184,4336
6090,-5801,4629,-9767,8151,32722,7815
6100,-6129,1891,-4400,9729,29728,10975
6110,-5276,-426,290,11917,17967,13246
6120,1901,-2315,130,12991,-18027,13797
6130,9114,-2308,-2203,11288,-26568,12533
6140,13975,-2254,-3823,8685,-24592,8852
6150,14605,-1676,-5572,3798,-4212,-4374
6160,9524,-1916,-4948,700,5029,-10747
6170,5532,-1579,-4489,-1450,8445,-14684
6180,3116,-1169,-4401,-2849,8144,-15804
6190,1210,-539,-6600,-4228,4563,-12463
6200,-1337,173,-8976,-4358,4783,-9303
6210,-4293,1426,-11863,-4250,6698,-4709
6220,-4871,3292,-19382,-6730,8108,401
6230,-6814,3569,-23659,-9243,12030,414
6240,-13371,4734,-29152,-12485,16804,-14
6250,-32764,21414,-1102,-16655,-12271,3905
6260,-32764,5212,32764,-3847,-32463,27293
6270,-32764,18069,32764,27566,-32766,32687
6280,-32764,32748,14864,32765,-32766,24004
6290,-14037,18027,22473,2183,-30127,-1635
6300,-8370,10038,19490,-7441,-12978,-5846
6310,-4343,5346,-1353,-10640,15653,-11136
6320,-10215,4357,-1797,-15754,23896,-1509
6330,1254,3160,2304,-17219,19022,1037
6340,8524,2818,3455,-16101,15809,-951
6350,8557,184,2298,-12269,5177,-10173
6360,3723,764,140,-9363,-838,-11506
6370,-465,1277,-4303,-5865,-2188,-7354
6380,36,-542,-5201,-4550,-703,309
6390,1284,-3725,-148,-3185,2385,11589
6400,56,-3873,1113,-471,2241,14125
6410,-726,-3366,375,1864,911,16767
6420,-1249,-2324,-1043,1381,-5338,20796
6430,-129,-2196,-1885,-1244,-9470,21294
6440,1767,-2050,-2724,-4245,-11339,21002
6450,4635,-2831,1395,-5706,-391,18729
6460,2789,-1626,3510,-1846,7014,15574
6470,893,0,3464,2997,9769,12019
6480,1686,1289,-2140,8283,10050,9325
6490,1382,4664,-9393,14195,27291,8912
6500,-5074,9134,-11078,16701,32706,9840
6510,-14895,21035,-20553,16069,32758,9223
6520,-17525,31306,-25968,4915,29093,7269
6530,-32764,32748,-2725,-26001,-13716,-7003
6540,-32115,28404,9224,-19897,-31152,-9546
6550,-24321,26109,-7050,7749,-8269,-19932
6560,-32764,20881,-15,3258,3741,-29744
6570,-32764,13611,14784,1120,-270,-32757
6580,-32764,1553,24678,14640,-29692,-32767
6590,-32764,-4297,24769,22719,-29695,-32636
6600,-32764,-8578,23194,30497,-18776,-26827
6610,-32731,-6952,14208,32756,-191,-13298
6620,-19571,1513,438,25242,23022,5753
6630,-17605,946,3643,7728,16721,4808
6640,-18673,627,8447,-6116,32,289
6650,-13221,3995,7519,-10419,-17071,698
6660,-499,8654,-205,-4574,-19363,4619
6670,-81,9946,-4819,-1158,-3271,4323
6680,-1702,9028,-6585,303,14628,4660
6690,-4461,3814,-1236,5237,31795,9398
6700,-5396,1146,2471,9988,23554,12382
6710,-4748,62,-1114,12661,3977,15643
6720,-221,-1909,-4245,10231,-10838,21025
6730,1812,-5539,-7974,1203,-9412,31135
6740,2356,-9129,-2691,-3260,-5735,32745
6750,4252,-10805,1650,-1160,-3746,32766
6760,4302,-6501,-1727,15435,-1966,30792
6770,4782,-3880,-5353,19071,-655,28951
6780,6787,-893,-8476,13407,2640,23240
6790,6046,-89,-7646,7372,3439,18580
6800,8045,-675,-6850,2573,3288,14456
6810,9372,-1138,-5768,462,4904,10125
6820,3736,1814,-9368,5405,13031,-26
6830,-3146,5015,-14402,10072,16499,-3466
6840,-6500,8478,-20820,12434,14439,-7001
6850,-8229,15446,-32744,10512,8870,-11920
6860,-10382,31066,-32464,-4719,-5208,-17822
6870,-22320,32748,-32524,-27826,-14697,-14586
6880,-32764,32748,1597,-32766,-22907,-17467
6890,-32764,15406,32764,-23108,-13311,-18351
6900,-32764,-1719,32764,16888,-20624,-2243
6910,-32764,10750,17968,32639,-31405,8750
6920,-12013,18951,3341,30149,-31949,7661
6930,-14644,13815,6948,-5170,187,-1935
6940,-16110,10422,5775,-15043,10384,-2662
6950,-13113,8423,4658,-17898,12790,-3297
6960,1529,8784,-1645,-12301,11863,-7250
6970,6846,7160,-3216,-12887,5087,-12313
6980,9477,3963,-1264,-16856,-3388,-16461
6990,10800,-3427,3694,-20072,-4699,-16766
7000,6249,-4953,4024,-16473,-6091,-16581
7010,1999,-4440,-831,-9528,-3700,-13338
7020,1965,-3092,-7618,-4017,4791,-5743
7030,2080,-3128,-7052,-4804,8809,-5406
7040,1598,-3340,-4859,-5121,11590,-6441
7050,-1531,-2797,-683,-4129,4987,-9654
7060,-417,-2319,-72,-4543,-4455,-10743
7070,565,-1747,-473,-5693,-12228,-11328
7080,3451,-1383,-1792,-6333,-15007,-10839
7090,248,616,1627,-2136,-339,-5901
7100,-2150,1489,3763,925,6295,-1970
7110,-3109,1097,4226,3296,8962,1606
7120,-2179,3975,-9123,3468,11102,5213
7130,-1434,4196,-12449,140,16783,7641
7140,-2376,3638,-13763,-2599,27196,10464
7150,-9605,4869,-18476,-3199,32633,12766
7160,-32764,11942,-14029,-6484,29255,22692
7170,-32764,22957,-8067,-7720,2859,30811
7180,-32764,32748,-5726,-7407,-27717,32766
7190,-17240,32748,-2220,1729,-31058,1320
7200,-32764,4601,21333,6129,-14323,-28487
7210,-32764,-1635,22465,10754,-18763,-29408
7220,-32764,-6429,22233,23439,-4361,-16449
7230,-31364,-2129,16295,26579,8173,-10942
7240,-27856,1393,10441,22908,15532,-6510
7250,-18890,3466,5697,-358,2207,537
7260,-15335,4683,5721,-10156,-8231,746
7270,-12201,5180,5267,-14605,-11240,831
7280,-8376,5159,4380,-14086,-5177,979
7290,-6366,5621,-988,-5080,13809,-194
7300,-5302,6123,-3592,499,20421,1575
7310,-4249,5491,-5848,5401,24547,5039
7320,-3428,1984,-1645,12375,23008,14090
7330,-992,-398,1115,13158,17127,19762
7340,-2119,-3277,7196,12324,9902,24214
7350,-2909,-2501,-341,11204,-5353,27515
7360,6259,-6289,-4986,-3400,-21507,32766
7370,8315,-9223,1309,-5465,-11984,32766
7380,5501,-8588,3296,1508,-1024,32766
7390,3910,-4957,-1571,18764,3660,32766
7400,5180,-3198,-4876,22199,2426,32467
7410,6511,-1701,-6991,21491,3294,29684
7420,7395,-1073,-7879,17601,5856,25386
7430,9356,-2690,-6560,8080,12194,15620
7440,10954,-4262,-6039,7057,15582,9072
7450,-4629,3631,-18283,13951,21262,-5489
7460,-16642,9583,-27440,14273,16542,-7591
7470,-25425,14855,-32747,10120,3847,-6753
7480,-5304,23238,-31480,9415,-12871,-10533
7490,-13677,32748,-32748,8067,1573,-21761
7500,-32764,32748,-32107,-20247,-5374,-18117
7510,-32764,32748,8163,-32547,-16125,-12545
7520,-32764,32533,32764,-18422,-27731,-7413
7530,-32764,18940,32764,314,-32315,-9312
7540,-32597,15793,24888,13160,-32706,-8047
7550,-4502,15506,-1828,6915,-14425,490
7560,-58,11117,1291,-6133,1863,-226
7570,2118,8068,4027,-13281,11475,-5504
7580,2943,5576,2004,-14759,15850,-12486
7590,-283,2731,-1724,-14013,22477,-21132
7600,-365,-474,1253,-13433,24584,-21509
7610,-4085,-1571,4333,-10550,23445,-20132
7620,-369,-2498,3453,-8183,1529,-5979
7630,1360,-4166,3580,-10085,-10626,166
7640,2037,-5275,1748,-11123,-19393,4106
7650,4298,-6188,-3368,-7371,-16995,6429
7660,4217,-5458,-5224,-4553,-9012,4254
7670,2885,-4685,-5553,-3034,-559,980
7680,-299,-3687,-3972,-2885,4718,-3608
7690,-706,-2683,-3834,-2751,2605,-4068
7700,128,-1539,-4045,-2271,671,-3462
7710,-1329,1255,-3490,-383,3417,1435
7720,-2887,2508,-1722,656,4967,5141
7730,-3868,3377,1207,1362,3582,8616
7740,-1585,3726,3608,1567,-395,10943
7750,2699,2400,3,2342,2884,9647
7760,1767,2230,-4542,5452,9507,8324
7770,2522,1671,-9285,10257,18743,8537
7780,-14004,15725,-32171,15927,32765,12355
7790,-29318,30229,-32748,9401,32530,17372
7800,-32764,32748,-32748,-2978,18873,20230
7810,-32764,32748,-305,-30580,-31627,5111
7820,-30871,32748,8183,-18696,-32766,-13944
7830,-30732,32748,9914,-10970,-32766,-29953
7840,-30588,24428,17587,-11873,-32766,-32766
7850,-32764,-1567,32764,-5453,-28119,-32766
7860,-32764,-6841,32764,12228,-12051,-31662
7870,-27475,-1052,17663,32762,14163,-9823
7880,-30235,7869,574,31141,13270,-4496
7890,-22248,8783,-6785,17614,6099,-870
7900,-10170,1024,4424,-16498,-4215,-1620
7910,-5078,-2091,5681,-16900,-3184,-1936
7920,-1978,-1964,2754,-10644,2416,-2202
7930,-1039,398,-1385,-3334,10309,-1722
7940,-4673,2466,-5818,5932,26430,4639
7950,-5651,1933,-5209,9377,28065,9049
7960,-4555,895,-3408,12117,22826,13019
7970,-5027,37,-577,13740,2825,20904
7980,-5141,-18,-3176,9483,-9409,25778
7990,-2655,-1317,-6280,477,-20844,30791
8000,3764,-6189,325,-9255,-26869,32738
8010,4688,-6306,1707,1564,-5992,32766
8020,3227,-5027,1665,9007,3967,32766
8030,1057,-4679,1940,14124,7944,32766
8040,5825,-3484,-2364,21332,7686,32766
8050,6955,-2736,-4584,21867,10198,32765
8060,9273,-2312,-6303,20276,14668,32243
8070,17291,-3918,-12752,16814,19667,28508
8080,9037,-163,-17670,6669,28314,7995
8090,-2723,4841,-22066,3170,25181,-4297
8100,16544,32406,-32748,2265,-24871,-32619
8110,-517,32748,-32748,-12181,-2043,-32766
8120,-32764,32748,-20349,-31193,868,-32756
8130,-32764,32748,32764,-32318,-27449,-27893
8140,-32764,14153,32764,-15046,-31735,-20083
8150,-32764,4602,32764,21835,-32584,-788
8160,-21441,13894,10925,31020,-26243,6333
8170,-9691,14227,1393,-2537,-1842,805
8180,-3198,8301,3609,-14850,6739,-2024
8190,-1430,5074,3109,-17575,13114,-7258
8200,785,4165,-3652,-9783,21771,-21607
8210,1947,2832,-2586,-8833,19777,-26292
8220,2784,1053,-3194,-9822,17210,-26071
8230,-2235,-1580,2254,-13163,7591,-15810
8240,-3070,-2891,449,-11822,3029,-7645
8250,-1629,-3638,-52,-9883,-2083,-870
8260,-133,-3659,-2409,-7013,-5807,2492
8270,1625,-3256,-5006,-2777,-8340,4226
8280,1796,-2790,-4754,-2541,-8607,4465
8290,3025,-2100,-6031,-3311,-8834,4971
8300,3612,-3316,-1919,-5620,-7084,6155
8310,3810,-2791,-1578,-3521,-4420,6836
8320,1755,-1306,-426,1098,798,9770
8330,1415,-683,648,1937,825,11715
8340,-488,-770,4733,-1374,-2060,8905
8350,-22,-1660,6046,-3640,-2598,4709
8360,1415,-2625,4173,-1050,-449,2096
8370,7420,-635,-6056,14286,16647,4323
8380,7331,1968,-14497,22441,30672,6385
8390,1821,3793,-18107,28734,32766,8525
8400,-18258,32748,-32748,23770,30877,10387
8410,-28461,32748,-32748,-13157,10563,-2204
8420,-32764,32748,-15747,-32502,-23718,-25489
8430,-32764,32748,25123,-32426,-32764,-32588
8440,-32764,7714,32764,13205,-32767,-32684
8450,-32764,-4955,32764,30999,-31893,-30266
8460,-32276,-4954,28827,32766,-15070,-21511
8470,-16843,993,12359,32656,24083,-8664
8480,-20060,4959,6297,24926,26264,-4230
8490,-21990,6296,3311,5424,15806,-1914
8500,-19501,5307,4865,-11349,-649,-2699
8510,-8590,1525,4849,-18678,-4043,2127
8520,-6576,3867,-1616,-12756,573,-83
8530,-6505,6377,-6413,-7743,9536,-2192
8540,-6954,5776,-3848,-1146,27747,2849
8550,-7876,5659,-5050,4051,29425,7997
8560,-5754,507,2453,12056,14900,22616
8570,-1687,-401,-3726,14109,2317,28927
8580,1146,-2657,365,10439,-7693,32415
8590,9528,-5326,-3874,721,-17988,32766
8600,10101,-7899,-275,-2783,-11818,32766
8610,11071,-8501,451,-1534,-4114,32617
8620,9588,-6984,-1478,2923,4202,30814
8630,7214,-6073,-1654,8720,11167,22945
8640,7844,-5227,-2827,10934,8495,17243
8650,9400,-4191,-4760,11571,5735,10696
8660,7447,-960,-8175,5951,5715,-3149
8670,4160,-527,-8461,1035,6256,-7265
8680,11,-259,-8248,-2233,5042,-9114
8690,-3441,4165,-20647,-1729,1974,-9062
8700,-12511,7034,-28373,5604,-1889,-5274
8710,-14233,13262,-32748,6670,-4051,-5056
8720,-8817,31378,-32748,-2824,-15736,-13670
8730,-23872,32748,3390,-32679,-30902,-27489
8740,-32764,32748,32764,-32767,-27950,-32553
8750,-32764,25095,32764,-25366,-9105,-26792
8760,-27422,6754,28993,32493,-17483,15594
8770,-10913,11948,9008,31569,-24337,5400
8780,-11180,9989,5619,14952,-16384,-2616
8790,-17022,6567,8856,-23117,2726,1687
8800,-17260,6116,8001,-26529,4735,3434
8810,-15409,5608,3151,-23157,4249,4965
8820,706,1363,-377,-13488,3297,1840
8830,3852,401,-2114,-8917,9059,-1331
8840,5419,-1017,-2850,-4987,15216,-3144
8850,413,-1064,-6701,-2289,19012,-3469
8860,-201,-3142,-4088,-1970,15370,999
8870,2376,-3172,-3046,-696,8306,-10
8880,1263,-1819,-2949,782,2224,-2700
8890,750,-686,-3847,-483,-2681,-1921
8900,447,-532,-3523,-3519,-5087,483
8910,-203,-467,-2958,-7320,-7358,3398
8920,1680,-1672,-1122,-10278,-8907,6947
8930,597,-1681,1535,-7090,-6644,14237
8940,825,-1387,1441,-4802,-6462,16293
8950,661,-1228,296,-2273,-4270,17878
8960,346,-849,432,378,-1943,20674
8970,497,-944,352,233,-1955,21191
8980,546,-934,-221,-451,-2210,20837
8990,-3297,8773,-16317,31585,32757,8316
9000,-4687,20675,-31550,29505,31754,2151
9010,-11981,32748,-32748,13404,12163,-12604
9020,-32764,32748,15410,-32721,-32146,-32057
9030,-32764,26912,32764,-31414,-32766,-32736
9040,-32764,1683,32764,-1967,-27091,-23696
9050,-32764,223,32764,30620,-1112,2768
9060,-32320,8179,13027,32766,14996,-13556
9070,-22575,11412,11078,31638,12688,-11838
9080,-15392,11706,9777,19473,3524,-7754
9090,-7230,7159,4402,-9161,-9301,-3036
9100,-4488,6844,647,-14711,-915,-1121
9110,-6214,6671,-1869,-15836,12190,-895
9120,-8977,6052,-4218,-13184,23285,-1745
9130,-6032,3146,-3102,-2565,24056,-3199
9140,-5732,2636,-2566,4012,16297,-3610
9150,-5119,2751,-3729,9623,8253,-1156
9160,4382,223,-1063,12502,2782,9666
9170,8750,-1152,-1281,9880,2605,11208
9180,5104,-2990,1169,4844,2969,9121
9190,9652,-5960,9,-7234,-9359,3477
9200,13231,-6735,-598,-9673,-8053,-150
9210,7985,-5892,-1337,-7654,-3510,-7127
9220,-1939,-3872,-5875,2760,1612,-9130
9230,-2545,-1942,-10309,5955,-439,-4619
9240,1770,-759,-10063,4932,-4380,-568
9250,2158,1962,-5324,-460,-8416,-404
9260,-25,3362,-5354,-2390,-10391,-1055
9270,-2096,4717,-9151,-4500,-12123,-937
9280,-4996,5057,-11949,-7526,-11090,530
9290,-16615,5024,-6437,-9096,-4832,6426
9300,-21838,17616,-9700,-2540,-11308,5857
9310,-23050,32748,-13807,-586,-29151,-13831
9320,-32764,30221,32764,-15204,-32740,-31681
9330,-32764,29371,32764,-409,-18459,-4772
9340,-32764,23310,29698,19868,23888,7870
9350,-31852,4750,29131,22816,16458,-1073
9360,-26306,5763,20044,17298,2011,3923
9370,-24800,8094,14543,4790,-4098,6184
9380,-23965,5527,13913,-11117,-5293,7613
9390,-20954,5268,12190,-11659,-5656,7511
9400,-15502,4257,10271,-11444,-5539,7179
9410,-14215,6271,7602,-10526,314,6918
9420,-13484,3753,1987,-7905,13106,9069
9430,-5003,2580,-1117,-7712,14042,7735
9440,4383,-1029,-1596,-9206,21970,249
9450,8636,-4604,73,-8517,22676,-3448
9460,6284,-4694,-582,-6146,16680,-8921
9470,6388,-4886,-3578,-3142,3870,-16063
9480,8077,-4460,-3363,-2813,-1054,-19912
9490,7416,-3499,-3445,-2810,-3677,-23560
9500,4242,-1656,-3546,-3180,-4944,-25375
9510,1691,2101,-3802,-4614,-3943,-17826
9520,584,3561,-5239,-5165,-374,-10858
9530,-1555,4315,-5013,-6672,2520,-3955
9540,-7293,-121,12278,-7001,-8168,3555
9550,-5084,-2568,10239,1225,-20328,4389
9560,-961,-3737,6186,8432,-29450,2705
9570,668,-3113,849,10910,-30877,-1039
9580,-4599,4412,-13430,2172,-9835,-3862
9590,-7917,7340,-18358,-7600,2840,-991
9600,-18428,7270,-13137,-18994,15090,2632
9610,-32764,13065,511,-21970,-3423,10004
9620,-32764,15840,7222,-12763,-15386,13963
9630,-32671,19341,6009,-555,-4670,14248
9640,-32764,14461,9664,8118,11350,13602
9650,-32764,2236,17255,20112,14613,5158
9660,-32764,-1447,20079,25253,8469,-1320
9670,-32764,-3291,23189,31426,-4210,-7555
9680,-32764,2224,19462,28311,-16146,-7499
9690,-29465,3147,21223,15134,-11151,-13870
9700,-22411,3025,20902,5754,-6923,-15851
9710,-14784,7376,4678,1229,8629,-8309
9720,-12476,5165,1554,-2997,12188,-5000
9730,-9681,3267,0,-5405,11695,-2138
9740,-5730,1679,-1110,-5314,10175,-187
9750,-2441,1817,-4860,-130,14410,-1174
9760,-137,2303,-4952,1870,17083,-2160
9770,2376,2673,-2973,3032,18267,-2876
9780,3321,2253,3558,7519,19988,-238
9790,4597,2250,4786,9958,17983,3516
9800,5687,-994,6460,7829,11025,9329
9810,4768,-5031,4708,3279,2851,13305
9820,4244,-5052,-3216,2702,-7669,8501
9830,4684,-3548,-6560,3627,-8374,3502
9840,3924,-2588,-7529,3352,-5636,-893
9850,-46,-1093,-6554,3303,2315,-4158
9860,-306,-25,-6006,3447,4282,-3087
9870,-375,1825,-5610,3107,4805,-1593
9880,-1681,1898,-3804,1976,3171,-645
9890,-13375,6202,-17236,-8440,-8584,4769
9900,-21193,3322,-13153,-10469,-8656,3298
9910,-32764,7557,-4082,-7435,-21164,-9793
9920,-32764,31576,3296,1086,-32766,-318
9930,-32764,32748,21969,652,-28375,12529
9940,-32764,27107,32764,4847,-11834,9669
9950,-28766,8230,28738,25028,-19083,-2606
9960,-19562,6010,21656,27581,-24357,-4562
9970,-14617,4129,17780,22380,-19334,-2055
9980,-14001,3576,15346,13485,-10568,2700
9990,-16049,7255,13559,-4215,-4230,7160
10000,-14179,7696,12065,-9754,-5407,7051
10010,-9779,6706,9722,-13405,-5508,5991
10020,-4851,3122,1906,-19291,6858,769
10030,-3247,2682,1102,-20985,15123,-1627
10040,-4177,968,312,-21030,22922,-2772
10050,-995,-2443,2674,-17078,23027,-3562
10060,1151,-3027,1366,-10184,16971,-6274
10070,1464,-1525,-2634,-3598,10892,-9212
10080,7543,-1930,-4031,94,5063,-10125
10090,6376,-548,-8655,-964,4418,-12895
10100,8625,-513,-8824,-4437,3966,-16637
10110,11061,-1400,-6611,-8096,13237,-27609
10120,8517,-402,-7380,-8615,19322,-32318
10130,3518,-564,-5615,-10386,21555,-32766
10140,-542,-1415,-610,-10348,20716,-32766
10150,-1016,-2171,852,-6541,21411,-32766
10160,-11511,-2492,13519,-1401,21293,-32601
10170,-8969,2049,-3262,23917,12729,-14660
10180,-2547,6249,-14512,22113,13971,-5648
10190,510,7487,-18678,8912,18096,-871
10200,-6255,3619,-18857,-7951,20999,1606
10210,-9751,705,-17907,-32019,10111,4042
10220,-13469,-1945,-17402,-32766,-6771,1896
10230,-27736,-7298,-15621,-32766,-27121,-1869
10240,-32764,-24177,6531,-15511,-32767,-5848
10250,-32764,-32764,24775,14538,-32766,6015
10260,-32764,-27098,18928,32243,-31580,16208
10270,-32764,-26125,26853,32766,-14712,-4554
10280,-32764,-27138,32764,32766,-13398,-12675
10290,-17934,-17561,29359,32142,-2118,-13385
10300,-10536,-6154,23832,21664,14329,-12013
10310,-11962,-8052,23247,-5272,5938,-6891
10320,-14219,-7881,16241,-7156,-7499,-3973
10330,-16942,-6232,5732,-10009,-14957,-518
10340,-14476,-4638,1382,-9695,-10509,-1134
10350,-14713,-1696,-3786,-8756,-1319,-1747
10360,-10314,5416,-9047,-8827,18065,3735
10370,-4195,7131,-8673,-11003,28118,8422
10380,8897,6048,-1212,-13166,32617,9871
10390,10786,7042,8109,-10044,31575,-8587
10400,1237,7898,-1100,4768,25242,-12256
10410,-2977,4440,-4010,2075,17936,-7106
10420,-3151,982,-2740,-597,9423,1836
10430,-456,-2041,-2543,2370,-5223,19915
10440,1235,-2458,-3924,5525,-9170,26785
10450,2120,-2781,-4513,8271,-9709,31358
10460,2788,-1786,-5571,13672,-3595,32766
10470,1954,-643,-5940,14399,-147,32635
10480,1724,281,-5866,13221,965,31437
10490,1402,1242,-6415,10886,223,29188
10500,4620,2758,-13905,4184,-3414,22581
10510,1668,2061,-18281,-557,4077,18468
10520,-8139,2248,-22124,-5031,14151,13668
10530,-9269,4182,-29822,-16892,19146,3389
10540,-32388,5062,-12726,-23735,13894,-12351
10550,-32764,18649,28210,-21530,-22206,-9332
10560,-32764,20626,32764,17431,-31917,11068
10570,-32764,3152,32764,31683,-13816,4357
10580,-32764,-6719,32764,32766,-11863,-7345
10590,-15741,4568,12074,30102,-31750,-7116
10600,-9782,8193,16054,14546,-22722,-1989
10610,-9762,8778,17742,1458,-10299,1785
10620,-12068,8646,7618,-10195,5222,5213
10630,-11555,7855,4486,-16993,10667,5474
10640,-11503,7078,2934,-23355,17134,3479
10650,-10419,4913,1690,-27640,25786,92
10660,-5252,1493,129,-29940,32543,-5256
10670,150,-795,1605,-27938,28163,-7162
10680,7837,-3169,2596,-22520,18539,-8940
10690,3115,-1973,-569,-6130,4582,-11320
10700,543,-625,-3392,-1103,2853,-6721
10710,1364,-621,-4475,1734,2406,-15
10720,4930,-1124,-4486,3506,6586,10332
10730,2126,629,-5674,5715,8432,13412
10740,2840,625,-5399,4688,9033,17698
10750,5129,1134,-6121,2918,7820,20886
10760,2131,-1322,3284,-3397,-7350,14708
10770,-1205,-2171,7444,-1627,-8924,12678
10780,663,-1767,4112,1548,-8536,11754
10790,2370,1430,-5508,7290,-4300,8532
10800,3705,2204,-10493,8121,4945,8402
10810,4380,5564,-22257,8080,21646,9052
10820,-4210,12237,-32460,4751,32231,8795
10830,-32764,32748,-32288,-19514,22633,-11214
10840,-32764,31289,4775,-31770,-17269,-25224
10850,-32764,25776,32764,-20851,-32723,-27471
10860,-32764,5731,32764,31801,-32766,-21317
10870,-32764,2556,32764,32766,-31824,-22051
10880,-32390,688,28545,32766,-17334,-21461
10890,-20912,-2023,25847,32390,4802,-19452
10900,-13905,-3001,17225,17108,18948,-15124
10910,-10855,-2038,12779,8565,13586,-11166
10920,-13370,-2061,13204,-541,3745,-7818
10930,-11310,925,8022,-9079,-15728,1351
10940,-9599,1993,5004,-9575,-12776,2883
10950,-9699,3969,1146,-7931,-3668,265
10960,-8876,7784,-7368,-6070,22327,-1856
10970,-6046,6883,-7192,-5636,31714,1318
10980,-4017,4812,-3425,-4317,32766,4980
10990,2341,24,9734,8428,31356,10998
11000,-262,638,3652,16824,21549,12736
11010,2079,454,1458,18196,9277,16953
11020,2338,-3416,-4360,6593,-8598,26408
11030,7505,-4641,-5279,4756,-13188,28237
11040,11999,-4752,-6345,5935,-10407,27078
11050,8206,-3470,-6254,7821,-433,23781
11060,4967,-1682,-5221,10787,11830,21119
11070,5039,-302,-7209,10394,11774,19283
11080,5139,861,-8649,7569,10430,16460
11090,3402,2398,-12316,-447,7013,8152
11100,-1388,4097,-16522,-3762,7472,3837
11110,-4060,3926,-19621,-7034,9101,1165
11120,-15430,11159,-21959,-13152,7905,-3883
11130,-11850,21606,-24134,-17449,-7338,-4064
11140,-32764,32748,-235,-32035,-32707,-31834
11150,-32764,32559,32764,-32140,-32541,-32489
11160,-32764,9405,32764,-7665,-28038,-12433
11170,-32764,12220,16039,32766,-28664,6362
11180,-25035,10364,10469,30138,-29825,94
11190,-11235,5399,16852,-3693,-9955,2789
11200,-8013,7326,14696,-9361,-917,3876
11210,-7482,9384,9887,-10528,7416,3465
11220,-5925,8700,2291,-15502,19572,-2203
11230,-3807,6219,2097,-18924,22914,-5488
11240,-6245,4524,2863,-19899,29404,-6083
11250,-4302,1978,824,-19772,32581,-3308
11260,-1623,-1609,2655,-22664,18680,2011
11270,3284,-4711,2498,-18059,7652,807
11280,10976,-5925,1173,-10732,-7820,-5807
11290,7509,-1163,-7092,-389,-19230,-21436
11300,7880,-1239,-7607,-1722,-11564,-22878
11310,6750,-1289,-6380,-4229,-1573,-23685
11320,1153,-850,-3678,-8861,9892,-25337
11330,-204,-987,-2163,-9063,9476,-25530
11340,-746,-748,-832,-7834,5832,-25290
11350,-33,-226,2758,-5644,1433,-24218
11360,-2689,28,4204,-289,-8198,-20414
11370,-2351,-37,1468,2932,-13141,-16475
11380,-1170,245,-1652,3815,-13106,-11704
11390,-2139,3940,-11090,40,-1069,-1991
11400,-4840,5249,-13823,-5949,9720,4924
11410,-6504,5353,-15395,-19179,31311,17365
11420,-10027,8155,-15473,-21507,32766,16521
11430,-21960,14158,-18324,-21342,30983,5430
11440,-32764,4660,10970,-16351,-23071,-7292
11450,-32764,-74,14933,4860,-32762,8600
11460,-32764,2431,15088,26796,-32766,9321
11470,-32764,-3828,27507,32766,-26172,-6613
11480,-32764,-9457,29049,32759,-15883,-8395
11490,-32764,-13456,28656,32235,-9610,-10880
11500,-24908,-12524,26080,30302,551,-14546
11510,-17498,-5560,14985,19280,26266,-15890
11520,-19814,-3449,14348,8182,28170,-11983
11530,-18758,-1333,13487,-2446,21567,-6617
11540,-17421,659,9318,-14264,-12390,-3390
11550,-10292,1677,5421,-16374,-18219,2308
11560,-5035,1883,2725,-16590,-13835,5276
11570,-7475,4137,-3048,-10463,14695,4914
11580,-5836,5507,-5356,-8133,27090,4942
11590,892,5474,-4451,-6600,32519,4800
11600,9300,3805,3490,-3620,32765,1719
11610,4699,4219,3662,9466,25079,-11256
11620,2637,4589,1483,10549,15986,-12183
11630,2322,-3600,-5029,-59,-10461,12755
11640,2821,-3516,-4977,3497,-4986,15839
11650,1920,-2871,-5584,7429,2456,18588
11660,969,-1517,-5813,10142,7985,20809
11670,-703,918,-5689,8961,8634,23379
11680,-696,1435,-5965,5966,5389,23886
11690,-809,2192,-7963,2526,1517,23689
11700,-2094,5109,-18486,-6097,-2521,21700
11710,-3954,4075,-18715,-11704,2755,20728
11720,-6641,3308,-15408,-14610,6298,16248
11730,-15029,11458,-18123,-13511,-280,3892
11740,-32764,32318,14121,-29843,-32747,-32731
11750,-32764,16760,32764,-23434,-32766,-25790
11760,-32764,18582,32764,16004,-32578,10535
11770,-32764,3298,32764,32766,-7261,-9664
11780,-28197,2997,24229,32220,-13540,-8800
11790,-17680,5384,15688,22529,-18639,-4340
11800,-11725,5811,13964,4438,-16918,-238
11810,-6122,6358,13123,-17126,-7103,4938
11820,-4677,7160,10615,-20280,-3767,6263
11830,-4986,7005,6552,-22432,-2842,6084
11840,-4995,3486,1744,-27575,6767,4569
11850,-1806,2378,-229,-28169,16274,3557
11860,-1263,-526,484,-22236,32539,-1900
11870,-8323,-775,-1926,-16552,32766,-4137
11880,-5606,-1875,-1208,-11995,32590,-4069
11890,-2041,-3094,-81,-7545,26665,-5704
11900,1823,-2325,-2596,2149,2253,-12348
11910,1317,-1003,-5876,3858,-4903,-14112
11920,1468,251,-9148,2201,-8279,-14511
11930,7669,-201,-8272,-6307,-6198,-14946
11940,9825,-435,-5729,-8931,243,-17682
11950,9538,-448,-4176,-10242,5029,-22903
11960,3868,-630,1222,-10782,6641,-28243
11970,216,-839,4249,-7630,1994,-32537
11980,-4196,-1322,5864,-3775,-3820,-30716
11990,-2995,-496,2547,519,-9278,-25765
12000,1023,3022,-7267,4039,-8709,-15774
12010,-3951,6429,-17602,-829,2027,-9109
12020,-8480,6370,-21118,-12343,15488,343
12030,-11814,-2199,-16013,-32634,32571,14966
12040,-23571,-6621,-5703,-32063,32362,12119
12050,-32764,-11810,3080,-21639,18034,7113
12060,-32764,-31964,7527,25185,-32722,32686
12070,-32764,-9833,10564,32747,-32766,32765
12080,-32764,15117,14409,32766,-32766,28336
12090,-32764,-8983,32764,29917,-19301,-18329
12100,-32764,-15762,32764,25094,-1316,-15668
12110,-20111,-14488,31610,24429,5269,-13408
12120,-11649,-9660,22705,21843,5534,-16203
12130,-13278,-3621,14191,3690,2626,-12232
12140,-12422,-3162,14087,-6884,-1214,-5087
12150,-13065,-1928,11790,-12694,-6368,217
12160,-13311,1064,4131,-14395,-8724,2267
12170,-12161,2801,1347,-13610,-6731,-223
12180,-10063,5128,-1238,-11906,-141,-2042
12190,-4985,7680,-2427,-7683,22866,817
12200,-271,7724,-2038,-4669,30107,2618
12210,8151,5476,1112,-1412,32415,3098
12220,18869,2622,2178,4489,12286,-10971
12230,7128,779,-2591,2250,-193,-17674
12240,1527,-1491,-4842,-2796,-5069,-13933
12250,1179,-4172,-4020,-5803,-4834,-6215
12260,762,-4815,-6313,-731,-1885,1246
12270,883,-4129,-7497,2559,-83,1640
12280,305,-715,-8041,4983,3196,875
12290,-1586,1678,-6884,5534,8856,700
12300,-3032,2443,-4809,3406,7291,1003
12310,-3892,3402,-3307,1676,3458,2125
12320,-5496,6546,-4926,-906,-4105,6592
12330,-6822,8024,-8691,-3871,-7164,8519
12340,-7994,7553,-10384,-8391,-9583,8513
12350,-32764,-1236,-1234,-11731,-8594,-4041
12360,-32764,-13268,12472,-6487,-15070,-6389
12370,-32764,-5517,11237,8897,-28799,2583
12380,-32764,6269,32764,18988,-23010,7636
12390,-32764,1068,32764,19058,-5779,-930
12400,-32764,-4958,32764,27632,-526,-7212
12410,-26328,-1869,30003,32684,-4840,-9679
12420,-22805,1027,18975,17339,-5777,-2731
12430,-16948,2593,19602,2261,-7445,4563
12440,-14977,3602,17944,-8600,-8655,7834
12450,-17313,-932,12354,-23165,-1399,7145
12460,-16764,-152,8105,-27952,5227,6268
12470,-10932,1050,5278,-31559,13006,4988
12480,-6001,1993,3032,-32744,20399,1423
12490,-4477,1882,3695,-30059,25526,-6670
12500,-1095,1437,-4750,-1802,11995,-2258
12510,-647,349,-4656,-51,7271,9334
12520,-685,-257,-4679,708,4667,13908
12530,-375,-785,-2536,1107,3685,18389
12540,-567,-1145,-928,2351,2786,23099
12550,1428,-1481,-2049,5381,-1301,32273
12560,3547,-1750,-2823,5559,-3005,32766
12570,5622,-1822,-3008,5334,-3534,32766
12580,5469,-1925,-2268,4742,-2951,32766
12590,5741,-3253,909,5177,-3122,32340
12600,5389,-3115,807,5902,-4326,29398
12610,6400,-2728,611,5800,-4539,25334
12620,4622,-1636,-1346,5444,-2180,15382
12630,2832,602,-4385,5559,137,11392
12640,2686,2137,-7507,4192,6639,9828
12650,1197,4437,-10331,2433,19846,10335
12660,-10457,8094,-20985,5008,32766,7966
12670,-14213,26006,-32748,3569,26056,-2365
12680,-32764,32748,-28858,-18814,1184,-13891
12690,-32764,2976,32764,-30488,-32766,-32766
12700,-32764,-18661,32764,8426,-32766,-28803
12710,-32764,-2969,32764,32537,-28553,-17990
12720,-30699,-5621,19228,32624,16436,-25473
12730,-18088,-5581,17001,26751,27049,-18627
12740,-10669,-3377,11720,14785,32227,-10914
12750,-14139,-737,10418,-8165,14800,-9965
12760,-10711,1695,10255,-15507,-5540,-6787
12770,-5884,3836,8652,-18146,-18962,-1916
12780,-8158,7138,807,-12208,-10515,185
12790,-9436,9494,-4233,-8585,5249,1947
12800,-7067,10003,-5690,-6616,19612,3982
12810,-4263,8421,-4968,-4641,29417,5322
12820,-3668,3807,-3431,2875,32766,8767
12830,-4317,838,1126,6854,31447,11604
12840,-3422,-1855,3931,10684,20179,13573
12850,-120,-1499,-2973,13970,-5012,15762
12860,-123,-2048,-4077,10245,-10038,17678
12870,1948,-3072,-3676,6299,-14367,19661
12880,4368,-3175,-3414,5472,-9116,23085
12890,4031,-2688,-3122,6409,-1880,24825
12900,3364,-2274,-2944,6990,4121,26477
12910,2127,-1445,-3396,6741,7297,27859
12920,2274,-1178,-4458,4968,7377,28407
12930,3246,-635,-7236,3921,6966,27321
12940,623,1655,-13003,3385,19113,21849
12950,-4924,1331,-13745,5770,27863,16948
12960,-19273,8819,-26907,10876,26768,11170
12970,-32764,32748,-32748,-22043,-26684,-4307
12980,-31206,32748,7388,-32698,-32766,-6799
12990,-32764,32748,32764,-32729,-31833,-12013
13000,-32764,14061,32764,21795,19576,-78
13010,-18679,886,32764,32340,5268,6289
13020,-14010,3812,15657,26512,-12948,2781
13030,-7985,9484,6718,7220,-14534,3589
13040,-7092,7414,12859,-21597,8745,5723
13050,-8949,5642,11329,-19729,17132,2516
13060,-6533,7527,7102,-12932,25174,-1511
13070,-16063,17192,24,-176,32766,-6971
13080,-12322,11565,-3700,1334,32766,-4167
13090,-2979,2577,1369,78,31475,-1366
13100,102,-3095,452,2544,24335,-1124
13110,-4196,-1988,-3038,9365,5177,-1710
13120,-3195,-1570,-5144,9280,-3977,95
13130,-2034,-1459,-4987,7914,-10825,1711
13140,4865,-2459,-5116,5101,-17447,4010
13150,8497,-2562,-6990,4886,-12289,3034
13160,8928,-2637,-6130,3499,-3346,173
13170,7701,-3289,-3751,-105,11869,-7952
13180,5066,-3575,-1941,-51,17973,-11259
13190,2572,-3122,-1304,836,20416,-12234
13200,-963,-2144,379,2971,17428,-7696
13210,1706,-3186,2576,4057,14840,-4261
13220,1929,-3753,1043,6808,15471,-2957
13230,1266,-4155,1790,9807,16245,-1917
13240,-3691,1656,-6371,12234,12688,1936
13250,-5297,4261,-10016,8797,2263,3040
13260,-8813,7074,-16861,2819,-13398,2750
13270,2259,1071,-8859,-13020,-32424,3461
13280,8665,908,-14955,-6863,-24427,618
13290,6874,8594,-23315,4026,12419,-3273
13300,-26904,32748,-25846,-363,31397,-14227
13310,-32764,30190,32764,-31312,-32539,-32725
13320,-32764,8472,32764,-5553,-32766,-20413
13330,-32764,8035,32764,29599,-32169,-3043
13340,-14761,3722,14620,32766,27821,-18922
13350,-10951,3481,6376,32616,32766,-13581
13360,-9761,4322,5078,25813,32766,-10274
13370,7033,-1989,-171,-20079,-20941,7665
13380,1278,817,-3520,-14296,1150,3980
13390,-4651,2704,-6640,-9070,20833,-896
13400,-5780,1926,-4011,639,32757,-1627
13410,-5616,636,-3048,5604,29760,-556
13420,-4731,-574,-520,8793,18246,640
13430,-1881,-1460,472,4597,-17728,1733
13440,3785,-2299,-1737,-989,-30989,2701
13450,8495,-2717,-2498,-4269,-31691,4591
13460,8514,-2468,-4238,-4362,-19911,6789
13470,1998,-1588,-3796,-1098,13118,10786
13480,-299,-1516,-2610,351,19222,13078
13490,-721,-1353,-2106,2359,18581,15312
13500,598,-148,-2764,6213,10746,19305
13510,1939,479,-4079,6734,6213,20382
13520,4071,937,-6089,6217,2782,20462
13530,2633,2646,-14645,5527,8598,16495
13540,-5065,4584,-23712,5013,15982,12818
13550,-12971,9214,-21751,904,21183,11650
13560,-14680,15922,-32748,-6064,7597,11184
13570,-15202,32748,-16441,-30026,-32328,-26808
13580,-32764,32748,19528,-32766,-32766,-32725
13590,-32764,14063,32764,10216,-23949,5725
13600,-32764,12154,32764,32414,-26724,9885
13610,-23044,11862,15613,32766,-31037,-4293
13620,-15521,9408,9396,30515,-22407,-6037
13630,-4990,4557,11663,-3600,-2952,2988
13640,-5574,6285,10524,-14350,3401,4500
13650,-7713,7844,8383,-19649,7954,4469
13660,-7249,8585,3612,-24078,17510,2136
13670,-4358,6058,1235,-25085,23205,-746
13680,-5571,2574,1581,-24651,28137,-4026
13690,-7143,-242,1404,-13587,28561,-2704
13700,-6593,-798,-49,-7379,19821,-1057
13710,-3773,-1701,-885,-3395,7950,-38
13720,-372,-2687,499,-223,-2812,-263
13730,1035,-1236,-4138,3659,-14411,-1983
13740,1812,-702,-5960,3092,-13784,-1212
13750,2017,-512,-5814,1739,-9313,975
13760,1687,18,-5259,-967,3787,8503
13770,1342,-103,-5329,-3833,7783,12955
13780,1220,-2080,-1339,-6721,9568,17386
13790,-261,-3034,258,-5975,10364,21326
13800,-1269,-3246,1841,912,2994,28317
13810,-767,-3413,1306,3560,-2480,30658
13820,641,-3389,590,5420,-6923,32095
13830,4206,-3776,244,8755,-7567,32263
13840,4962,-2615,-708,12320,-2896,31312
13850,7057,-631,-4718,16668,6519,30278
13860,4571,8471,-13295,26588,32530,28554
13870,6633,25938,-31937,29289,32766,18940
13880,2889,32748,-32748,19071,29073,-7101
13890,-32764,32748,-26492,-32204,-30747,-32766
13900,-22540,32748,21057,-32766,-32766,-32766
13910,-32764,-342,32764,-32387,-32766,-32766
13920,-32764,-12118,32715,31436,-2912,-30743
13930,-28506,-5558,13307,32766,3706,-26188
13940,-18915,2953,571,31845,20217,-21762
13950,-24716,2592,5771,18732,18571,-18036
13960,-21151,1786,8751,1124,12502,-9812
13970,-9181,4227,8613,-9121,2715,2285
13980,-8070,4007,5475,-14171,-5306,4546
13990,-2251,3637,2755,-13761,-6966,6323
14000,961,4584,195,-11751,-2602,4390
14010,-2245,5566,-1806,-5051,17565,-1663
14020,-4014,4635,-1186,-1137,21905,-1192
14030,-471,265,1538,8185,13498,4240
14040,385,-350,-2196,11127,6322,7081
14050,3381,-1612,-2478,9636,1486,10458
14060,5314,-3484,-180,3421,-3181,14807
14070,2170,-5677,-1940,-2211,-917,20761
14080,1499,-5756,-2542,1076,1561,21034
14090,1713,-5627,-3008,5830,3064,20468
14100,2861,-3940,-5149,15119,5259,17602
14110,4901,-2284,-7193,16441,5416,15235
14120,5831,-453,-9149,13928,6426,12166
14130,5445,488,-10122,8369,7634,8707
14140,-459,2305,-12975,-2328,7899,2000
14150,-5907,3551,-19066,-4704,8105,568
14160,-14482,13414,-22018,-7136,6999,520
14170,-24863,32748,-32748,-20862,-18707,-433
14180,-32764,32748,-27417,-30809,-31751,-22183
14190,-32764,32748,8080,-32767,-32758,-32371
14200,-32764,32748,32764,-13284,-6690,-14972
14210,-32764,24150,32764,19180,-321,6535
14220,-30334,12731,32233,31778,-12058,2776
14230,-22351,11850,9197,22878,-22529,-4295
14240,-15791,10724,9382,6282,-13535,1544
14250,-7332,10100,6900,-11908,16983,-390
14260,-10942,8534,4957,-9856,26321,-2764
14270,-10854,6071,-1191,-8679,32281,-5074
14280,-6646,1142,915,-11614,26827,-4105
14290,-4415,-2402,3085,-11992,16034,-3415
14300,7088,-6331,2306,-7158,-10766,-5544
14310,10508,-7100,1000,-5810,-19598,-9111
14320,12507,-8113,528,-7550,-25389,-13001
14330,11477,-8352,901,-9543,-26713,-15840
14340,4455,-4434,-5630,-6997,-14290,-13930
14350,3584,-1563,-8518,-5771,-4959,-9322
14360,3716,306,-10336,-6370,5294,-3587
14370,642,1043,-7190,-7745,14358,629
14380,-1807,777,-3055,-6789,17542,-164
14390,-2045,1494,1296,-2026,10673,-1312
14400,-2223,2548,3279,4097,4599,-1859
14410,-3653,-1899,5776,8226,4885,46
14420,-3521,-2341,3983,7701,5019,767
14430,-7003,95,-4199,6069,3444,354
14440,-9056,6184,-16804,-5073,-2548,3287
14450,-8849,6567,-19801,-12047,198,8626
14460,-19389,10176,-18019,-15139,7956,13766
14470,-32764,32748,-18758,-7038,-10048,20573
14480,-32764,32748,2245,-7749,-29941,21997
14490,-32764,32748,32764,-1781,-32766,14113
14500,-32764,17898,32764,22574,-32766,-21073
14510,-25953,10096,32764,21829,-27447,-22672
14520,-26439,6188,32644,22622,-6501,-21561
14530,-26094,5108,26399,24172,10162,-19774
14540,-23161,4138,17058,18079,28278,-11308
14550,-26303,4302,13385,12215,25081,-10542
14560,-23455,5408,6655,6463,13041,-10604
14570,-14238,4146,6321,-489,971,-8524
14580,-11397,4924,5603,-5293,-1273,-1212
14590,-8827,5680,3343,-2967,3108,1381
14600,-7128,6046,865,-1354,7029,2971
14610,-1233,5373,-185,-591,14069,4015
14620,695,5583,761,72,16000,2226
14630,-37,5709,1284,1101,17811,867
14640,2212,1408,4561,3801,15643,3377
14650,5718,-1353,6170,5353,9889,4802
14660,6581,-2726,5096,6259,2604,5165
14670,7601,-3383,1423,5571,-2304,5686
14680,7511,-4514,-4539,-641,-2040,2113
14690,5119,-4771,-4874,-3345,-193,-2414
14700,111,-3370,-5145,-3857,1453,-8505
14710,-957,-2929,-4931,-2451,2255,-8855
14720,-1947,-2094,-5227,-685,2932,-8352
14730,-2277,1991,-6615,-247,1846,-5354
14740,-3782,3194,-8378,-2648,730,-3406
14750,-6952,3910,-11432,-6341,-1352,-1277
14760,-9994,4262,-14837,-10291,-5029,1283
14770,-21450,9821,-8128,-14656,-15474,2947
14780,-32764,19851,-2588,-13739,-28461,-10301
14790,-32764,23551,9336,-12782,-32765,-20397
14800,-32764,32748,20062,1220,-27630,9927
14810,-32764,32748,22694,3514,-5194,10799
14820,-29463,24132,19364,6111,14366,-182
14830,-23815,8377,23941,7992,20018,-3941
14840,-22686,5181,22002,11630,8054,-1223
14850,-21028,5695,16149,10800,-3918,897
14860,-23766,6952,12180,7465,-8439,1700
14870,-23017,7290,11443,-3918,-1939,4599
14880,-20048,6242,12821,-8415,844,3844
14890,-16645,5960,12870,-9351,2747,2613
14900,-12453,5906,10801,-7173,5040,1305
14910,-4707,4517,3238,-2340,12438,-513
14920,-2570,3975,1730,-3019,15939,-1407
14930,-3231,-959,1941,-4543,14044,-2087
14940,-1189,-2907,2366,-3355,4992,-2077
14950,927,-4018,1634,-2076,-4349,-1267
14960,6610,-6219,106,-2855,-15647,2983
14970,9238,-6460,-781,-3468,-17024,4337
14980,11563,-5291,-2487,-3297,-14393,4400
14990,9055,1692,-7226,-2864,-8456,2861
15000,3920,4049,-8268,-5180,6278,-3291
15010,1692,4085,-7023,-7606,10172,-3466
15020,-53,4011,-3578,-7933,11927,-3236
15030,-4455,3116,-67,-638,6841,-3422
15040,-4343,409,2553,1802,4174,-3112
15050,-3367,-2329,5873,3205,2822,-3162
15060,-5173,-3754,3951,6298,3116,-4361
15070,-9765,-90,-1986,6070,1254,-4189
15080,-10383,4577,-8007,3749,-2060,-1105
15090,-13152,7019,-12222,238,-2115,4055
15100,-32764,20368,-3674,-3053,6921,21693
15110,-32764,29372,-1412,6498,-4925,31473
15120,-32764,32748,-3884,17179,-19167,28530
15130,-32104,22901,18652,11759,-28226,-2330
15140,-32764,9664,17893,-1393,-5004,-20122
15150,-32764,9398,18596,2590,-5556,-15647
15160,-31492,7395,19927,6326,-7903,-11969
15170,-21170,7372,16701,11305,4330,-9069
15180,-22657,7303,12283,11422,12845,-8866
15190,-23083,6365,9073,9556,13617,-8108
15200,-15288,3928,4823,3926,2907,-4797
15210,-11211,3430,2404,1760,2510,-3023
15220,-6908,2783,2188,-523,3592,-1847
15230,-231,2486,2229,-1995,5621,-1264
15240,815,2400,2087,-1695,6663,-1736
15250,1867,2060,2824,-1266,8197,-1929
15260,2455,2494,2530,-83,9966,-1426
15270,6361,335,3571,229,7725,1188
15280,7118,-1566,4156,497,5117,1531
15290,6309,-3978,1656,1462,3401,1053
15300,627,-5779,-1885,570,1135,-668
15310,-1931,-4979,-3174,-649,-1389,-1271
15320,-1368,-3224,-2185,-2083,-3730,-641
15330,-2344,-1610,-3795,-1747,-3591,-389
15340,-2110,-1209,-3814,676,-294,-650
15350,-1228,327,-3880,1992,555,-654
15360,137,3947,-3727,2623,1335,-1206
15370,-1754,5806,-5381,1693,2096,-1583
15380,-6435,6676,-8097,-749,3265,-873
15390,-13118,8044,-10847,-3942,3484,1469
15400,-28613,7944,-6191,-8662,-5856,8269
15410,-32764,6593,550,-4907,-18346,5409
15420,-32764,13772,1561,2018,-29760,-4311
15430,-32764,32748,13215,-601,-25167,-1984
15440,-32764,32748,24344,-5592,-8162,6063
15450,-32764,28675,22666,-5403,7093,4637
15460,-26446,12401,22390,-2485,13046,-486
15470,-22052,9142,19453,5241,6831,577
15480,-25477,7046,16983,5001,775,3137
15490,-28480,9273,10862,3827,-4093,4449
15500,-25507,10606,10739,-4750,-6657,6261
15510,-21798,11244,12881,-6169,-4421,6027
15520,-18634,10469,13056,-4771,-592,4720
15530,-12395,6837,9120,-2728,4953,2020
15540,-9365,5062,7036,-3614,6670,1280
15550,-6262,3585,4981,-4759,7992,675
15560,-2357,1462,4400,-5855,9823,-67
15570,-1511,-2362,2572,-6465,13631,-1962
15580,-3256,-2810,1486,-5584,12075,-3000
15590,856,-5366,1829,-2962,-1354,-5988
15600,1669,-6345,1178,-2022,-6026,-6617
15610,2917,-6437,-258,-2530,-9713,-5154
15620,11884,-2857,-2583,-4310,-15311,-3116
15630,11586,1076,-4097,-8215,-22906,-3210
15640,7925,4716,-6860,-9142,-17638,-3003
15650,4046,7048,-8188,-10443,-8623,-1432
15660,-1774,4305,-2278,-9331,6938,-971
15670,-5638,1062,-1479,-5039,7422,-3001
15680,-5661,-2192,1678,-2218,4947,-3608
15690,-3599,-5305,5303,925,2318,-4174
15700,-4139,-6618,6110,895,2827,-3963
15710,-5019,-3143,2803,1329,2231,-3360
15720,-7685,3025,-3803,1667,191,-2467
15730,-13193,8558,-11276,-1699,2588,4620
15740,-24841,12431,-13426,-2123,11205,10343
15750,-32764,18884,-10357,-1437,16049,19003
15760,-32764,30560,9745,10721,-5628,29751
15770,-32764,30011,23182,20783,-25937,15893
15780,-32764,24100,17517,23904,-32266,-4240
15790,-22758,14599,21417,9055,-11981,-12297
15800,-24793,15514,13817,8124,-3136,-10963
15810,-28122,14212,13987,4069,775,-11320
15820,-29037,8605,16337,-3113,4895,-9203
15830,-25633,9405,15861,-1245,5450,-8170
15840,-22892,9830,13509,1256,7192,-7324
15850,-18292,7493,8548,2245,9875,-6917
15860,-16633,5458,8072,1382,8511,-6755
15870,-14675,3577,7272,1012,6214,-6036
15880,-8996,2111,5476,476,5020,-2977
15890,-6681,1461,4388,-235,8137,-1976
15900,-4100,422,5056,-1955,11327,-1470
15910,-2135,-579,6387,-3459,12808,-2733
15920,-2318,180,5524,-2964,14593,-2046
15930,-183,1113,4327,-2513,14055,-428
15940,2539,1053,4587,-3084,12422,28
15950,4553,-1404,3763,-3803,4969,-683
15960,5125,-3796,2273,-3925,-1655,-221
15970,3717,-4786,178,-3950,-6610,333
15980,-2168,-4428,-2743,-3744,-6144,-671
15990,-3378,-3791,-2732,-3743,-4397,-1638
16000,-2739,-3293,-2445,-3251,-2824,-1983
16010,-1819,-2227,-3456,-1756,-1249,-2185
16020,-588,1662,-3751,573,1038,-2777
16030,-13396,10235,-7628,-4157,174,327
16040,-23727,12954,-9017,-6452,-633,4156
16050,-32764,11741,2166,-7019,-18099,4968
16060,-32764,15912,5295,-1401,-30548,-6132
16070,-32764,26992,5790,2565,-29940,-8967
16080,-32764,32748,18061,-4474,3549,7854
16090,-31375,32748,20149,-7748,14505,5714
16100,-21982,25470,23307,-8093,14876,779
16110,-21277,13021,19249,-1761,9768,3699
16120,-23322,10409,14081,-3137,2328,5367
16130,-26212,8051,11745,-7569,-3077,5589
16140,-27041,6025,10956,-12043,-3304,6409
16150,-25539,3984,10958,-16489,2450,6047
16160,-21789,4316,9976,-15803,5244,6173
16170,-17380,3823,8655,-14119,7613,5943
16180,-7714,3724,5074,-11318,9139,3826
16190,-2633,2947,3766,-10936,9695,2842
16200,-1109,1573,3851,-10842,11485,892
16210,-1388,-331,4213,-10282,12706,-745
16220,818,-3594,4272,-7654,9122,-2072
16230,2196,-4943,2881,-6292,6555,-2305
16240,3599,-6157,2252,-6079,3934,-2135
16250,6306,-6883,1407,-6779,-2064,-4788
16260,4928,-5840,-21,-6705,-5928,-7434
16270,4738,-2397,-4237,-6874,-9279,-5899
16280,4897,-13,-5137,-9029,-10626,-3714
16290,3013,3861,-6394,-9434,-8583,-2405
16300,-336,5722,-6110,-9420,-4375,-2031
16310,-6325,-1051,763,-5155,4166,-2694
16320,-4919,-4501,4091,-1947,4984,-2816
16330,-4219,-7107,7255,189,4183,-3699
16340,-5684,-6509,6812,1907,3074,-4715
16350,-9234,3777,-1295,3407,-1475,-4643
16360,-13033,11018,-8390,737,-5465,-2657
16370,-20456,15870,-13873,-3658,-5360,3026
16380,-32764,32748,-7547,-14152,4731,25151
16390,-32764,32748,16428,-9115,-9986,32428
16400,-32764,32748,21554,8865,-29895,28236
16410,-29001,12119,26273,16067,-5325,-10814
16420,-27078,8996,18122,16438,2105,-14541
16430,-20169,8291,10684,12445,5220,-9133
16440,-21907,8036,9231,3463,7784,-4230
16450,-32764,6206,16347,-6527,1990,-5008
16460,-32318,6397,15692,-4082,-2093,-4358
16470,-21566,5871,11684,-514,5625,-3508
16480,-19751,4756,9337,1191,12071,-4652
16490,-19629,4533,5506,2419,14524,-5531
16500,-14315,3473,1456,528,11767,-4178
16510,-13006,3717,3176,-1890,9699,-2946
16520,-9968,4736,3906,-3332,7606,-705
16530,-3988,3514,6583,-4159,8180,3013
16540,-2941,2707,7030,-3892,8743,3075
16550,-2197,1746,6606,-3678,8303,2540
16560,-995,775,5846,-3821,7323,1746
16570,2497,-1206,5055,-6949,3373,-302
16580,3626,-2740,5433,-8870,1535,-1056
16590,3251,-4494,4721,-9244,340,-978
16600,533,-5205,-2244,-5553,-1639,337
16610,-1300,-4340,-5677,-4439,-1664,-245
16620,-2368,-3586,-6543,-5158,-1132,-1230
16630,-1670,-2459,-3890,-6353,-236,-1705
16640,412,-101,-1228,-4196,-1247,-2591
16650,308,63,9,-3518,-2471,-2691
16660,85,1245,1400,-3538,-3135,-2539
16670,-1161,5945,1697,-3234,-3393,-2255
16680,-3060,9124,-96,-4595,-4285,-1312
16690,-7267,10340,-2574,-7763,-5169,575
16700,-28589,16405,-11576,-13155,-4421,8285
16710,-32764,16421,-6728,-17050,-6866,14317
16720,-32764,10411,7328,-7963,-25262,-1463
16730,-32764,19046,3198,3038,-20720,-6781
16740,-32764,32365,6738,-3158,3318,5904
16750,-29121,26561,15338,-10532,10385,3554
16760,-22617,16802,21160,-10845,10618,1647
16770,-22860,9010,17593,1660,2832,3070
16780,-26105,11301,13066,3413,-3621,4059
16790,-32764,12884,11208,323,-9050,3843
16800,-32764,12016,10992,-2989,-10946,5181
16810,-32764,15724,13687,-5551,-5473,4833
16820,-31665,16820,13374,-4956,-2835,4433
16830,-27399,16333,12566,-4666,-457,3902
16840,-18838,14257,11348,-7414,4274,3805
16850,-13602,11891,11305,-9638,8010,3277
16860,-10404,8915,10688,-10676,13036,979
16870,-9828,5541,9186,-10151,17880,-1712
16880,-7853,-109,6768,-11095,14939,-3776
16890,-6955,-2766,6402,-11505,8558,-2324
16900,-4506,-4566,5059,-10258,1300,-502
16910,1435,-2914,2926,-5527,-3989,-2976
16920,1874,-2852,3309,-5679,-3744,-4490
16930,1297,-2234,4158,-7301,-5436,-7259
16940,1226,-1360,3734,-7768,-7473,-7195
16950,1209,59,2830,-7628,-9702,-6030
16960,3038,2403,-1330,-6754,-10393,-4112
16970,3070,2531,-3667,-4648,-3665,-2091
16980,3445,1919,-4722,-4401,736,-2216
16990,4072,756,-4385,-4634,3695,-2694
17000,2562,-1259,-2341,-4098,5079,-3279
17010,1529,-1849,-949,-3171,4434,-2697
17020,-107,-627,-1232,-1932,4260,-2005
17030,-1733,2115,-1983,-1052,4889,-1314
17040,-6284,9675,-5641,588,5059,-657
17050,-9592,13367,-8221,414,5350,930
17060,-13572,15858,-10364,-824,7147,3907
17070,-32764,24771,-14433,-5850,9324,10932
17080,-32764,32748,-11667,-8298,1309,16119
17090,-32764,32499,8246,-8673,-12999,20221
17100,-32764,21148,32208,328,-16856,16635
17110,-32764,-1543,32764,31703,-3657,-2254
17120,-32764,1211,29646,32602,-9043,-9500
17130,-24723,3952,17844,24870,-10091,-9176
17140,-17436,1334,15435,-4497,5397,-4030
17150,-18792,3709,12557,-7930,8327,-5485
17160,-19898,6740,7948,-6933,9129,-4788
17170,-13660,10854,1234,-7053,12222,565
17180,-10451,9724,2625,-9882,14575,1239
17190,-10336,6179,4855,-11586,16020,178
17200,-10505,3165,7211,-10516,14850,-1091
17210,-9193,1744,3883,-4612,10461,-2323
17220,-8840,607,3681,-4414,10104,-2634
17230,-8368,-242,4694,-5484,9805,-2696
17240,-7823,-1151,6281,-6386,5621,-2343
17250,-5351,-910,6057,-5974,3013,-1682
17260,-3862,-744,5384,-5473,2194,-1166
17270,-3617,-1112,4952,-5037,1888,-449
17280,-3015,-2571,3686,-3393,196,1720
17290,-2457,-3540,2259,-2135,-554,2501
17300,-2230,-4432,864,-1119,-606,2756
17310,-5071,-4837,137,202,-474,1135
17320,-5662,-3560,1511,729,-657,406
17330,-6901,-1675,3135,1477,-8,-226
17340,-7805,-564,4081,2404,426,-805
17350,-6343,1977,4274,2701,-732,-1445
17360,-5894,2809,4192,2045,-1130,-1489
17370,-5198,3739,3658,696,-2533,-1239
17380,-4460,4050,3637,-60,-3246,-1070
17390,-3466,4410,3689,-881,-3731,-959
17400,-2724,4439,3801,-1739,-4110,-906
17410,-4895,2093,136,-3773,-5026,-70
17420,-8604,3478,-4117,-5200,-4734,1127
17430,-14526,5113,-6467,-7084,-3506,2677
17440,-22408,-7278,3538,-3902,-4227,6588
17450,-27391,-8029,1295,8387,-7965,3799
17460,-32764,716,-5810,19627,-6893,1628
17470,-32764,14709,-7636,20104,-3701,3368
17480,-32764,31833,13850,173,-4172,5061
17490,-32764,27988,25323,-2340,-1401,2375
17500,-28651,18675,25366,4783,2432,2348
17510,-27027,6058,17112,17730,-8709,-2948
17520,-31284,5046,12069,17636,-10969,-953
17530,-32764,9071,9607,13989,-9174,2054
17540,-32764,18222,10717,4813,-4758,6884
17550,-32764,21234,9658,3097,-2858,8303
17560,-29069,21991,8489,1910,-2650,8254
17570,-23891,20180,9081,215,-3083,6057
17580,-16305,10916,10428,-3586,-3566,2630
17590,-13054,7110,8548,-5359,-667,3060
17600,-10419,4168,5099,-10195,13589,314
17610,-9502,4570,3144,-12373,19758,-2429
17620,-7897,3830,3181,-14142,23201,-3863
17630,-5744,2540,3411,-14589,22935,-3741
17640,-823,-965,1440,-12199,17023,-1251
17650,923,-3633,907,-9861,13774,-345
17660,2163,-5108,-42,-6639,8793,-642
17670,6741,-6493,-1115,-3066,-491,-2274
17680,6346,-5305,-570,-3772,-1661,-3048
17690,5863,-3783,1079,-5519,-2024,-3365
17700,4565,648,4214,-7594,-1717,-4651
17710,1213,2592,4033,-7334,-1503,-5499
17720,-1884,2713,3703,-6987,-1903,-4909
17730,-1518,1121,1022,-6151,-2579,-2281
17740,-1322,-301,-95,-4349,-2906,-2697
17750,-1116,-1529,-771,-3695,-1593,-3577
17760,-2348,-1018,-1908,-3030,497,-4222
17770,-6455,5367,-6350,-3345,969,-2852
17780,-8835,6826,-7046,-4405,-22,-239
17790,-10970,5623,-3921,-4718,-416,3161
17800,-25250,6771,-4047,-1278,2328,11322
17810,-22693,27686,-6163,16310,-24086,26578
17820,-18204,26103,-9564,6768,-23318,7389
17830,-25406,21903,-4637,-4981,-3828,-7781
17840,-32638,17522,8614,-5071,12937,-4122
17850,-27859,17132,821,1118,4851,-2431
17860,-26870,13356,923,307,1470,-5577
17870,-32524,3425,9145,-2516,-2543,-15137
17880,-32764,-457,13787,-938,-5747,-16453
17890,-32764,-2271,16658,1923,-9333,-14702
17900,-25178,281,15076,5004,-11622,-11327
17910,-20106,1951,12903,4549,-4745,-5984
17920,-17905,2019,11958,1082,4893,-4874
17930,-18233,1991,10985,-2232,12314,-3791
17940,-15210,2378,9209,-7754,8252,-2410
17950,-11911,1978,10812,-9032,1534,-1486
17960,-8296,2746,10009,-7250,-1203,-503
17970,-4102,2210,5027,-1229,6091,-1050
17980,-2842,1880,3605,599,10717,-1569
17990,-1220,1750,2747,1415,13850,-1404
18000,5500,-717,3704,657,14646,44
18010,8254,-2007,4315,255,12363,141
18020,8289,-2970,4002,-304,8023,-596
18030,4237,-3560,-300,-3563,-5220,-1687
18040,3088,-3072,-1315,-5313,-9855,-1503
18050,891,-2192,-1739,-5727,-10390,-2219
18060,-1292,-2595,-1413,-3365,-5789,-3664
18070,-733,-3023,-1638,-1380,-4095,-4275
18080,-377,-2991,-2338,386,-2816,-5049
18090,-1396,165,-4367,1497,-432,-5525
18100,-2038,2091,-5905,702,167,-4790
18110,-6460,3854,-8503,-387,1191,-3489
18120,-13433,5458,-10578,-1923,1243,-868
18130,-27786,6022,-8142,-4218,-8469,6431
18140,-32764,7613,-3850,-2049,-16985,6849
18150,-32764,15430,-2526,1873,-24562,3572
18160,-32764,32748,10215,-2761,-16603,5927
18170,-32764,32748,24122,-6723,-6454,8539
18180,-32764,32748,30887,-3746,692,7388
18190,-23147,18599,22272,14301,-4179,1020
18200,-27776,16293,14813,17431,-8176,451
18210,-32764,13952,13480,11994,-9233,2623
18220,-32764,11013,15460,2664,-10583,5452
18230,-24431,11883,15857,-8517,-8234,7717
18240,-17533,11962,13058,-10185,-504,6875
18250,-8517,10646,7252,-13448,15266,3684
18260,-6342,10582,4821,-14932,23849,2502
18270,-7092,9672,2708,-16731,29393,1172
18280,-3243,4306,2280,-19941,25870,-558
18290,-579,5,2785,-17989,21992,-1339
18300,1482,-2581,-63,-13478,14908,-3116
18310,3002,-4519,-2968,-10144,6215,-4020
18320,6090,-6074,-2144,-9775,-926,-1238
18330,6973,-7270,-581,-9632,-687,-781
18340,5178,-7342,350,-8681,-41,-2082
18350,2602,-5232,1918,-7565,627,-3977
18360,1058,-3570,2971,-7843,1389,-3962
18370,766,-1678,4372,-8476,623,-3521
18380,-2049,-1483,3850,-9004,-2704,-2937
18390,-3626,-1894,1760,-8261,-3355,-2359
18400,-3608,-2371,325,-7269,-2959,-1978
18410,-4050,-2264,-582,-6042,-1054,-2413
18420,-4698,822,-1206,-4329,1931,-3420
18430,-6125,5663,-5761,-4311,1072,-2984
18440,-8494,9067,-8790,-6276,-440,-906
18450,-21921,16355,-8839,-8851,-654,8746
18460,-32764,23380,-3044,-6858,215,17919
18470,-32764,27235,10179,-156,-1587,28909
18480,-32764,32513,10035,13969,-25993,23412
18490,-23310,17888,13947,4160,-29143,6551
18500,-18577,13668,6316,763,-11914,-5057
18510,-25397,14808,4094,-10118,19557,-7446
18520,-30277,13169,8695,-13442,18037,-7961
18530,-32764,12480,10986,-10447,8601,-9528
18540,-32764,9878,9873,-3900,-1373,-9700
18550,-28244,6415,10293,4335,-4532,-9260
18560,-24937,3474,10189,6822,3266,-9876
18570,-22321,1415,8589,8620,12008,-10256
18580,-22169,793,5847,6515,14431,-10179
18590,-21017,2095,4897,3430,10390,-7032
18600,-15317,3250,5116,-476,5993,-3305
18610,-8913,6271,7301,-5351,4290,-752
18620,-7102,5800,7088,-5435,6077,163
18630,-5415,4585,6614,-5146,6972,593
18640,-3323,3216,5858,-4857,6815,491
18650,819,2105,4451,-4888,6989,-759
18660,2895,736,5040,-5630,6831,-1101
18670,3988,-672,5368,-6291,5533,-1311
18680,4260,-3636,3494,-7033,-2615,-1539
18690,-1621,-2212,-2985,-7476,-5108,-2450
18700,-1778,-1042,-3507,-6563,-3118,-2698
18710,-784,-888,-3804,-5782,268,-3507
18720,-992,-969,-3231,-5449,1169,-3602
18730,-784,595,-3451,-4779,756,-3433
18740,-118,5022,-2297,-5492,-484,-2951
18750,-2612,7217,-3443,-6660,-1298,-2415
18760,-8909,9976,-8124,-8426,-1360,-412
18770,-30327,14817,-12687,-15951,-4722,7993
18780,-32764,13983,-6390,-17697,-13742,11473
18790,-32764,16284,282,-13365,-27201,7661
18800,-32764,26874,400,-5386,-32601,313
18810,-32764,32748,13604,-2831,-4894,9497
18820,-32764,32748,21700,-6620,9801,7022
18830,-26402,28361,30324,-5425,14201,-303
18840,-23210,14162,25752,2379,12486,-1076
18850,-24753,12220,17612,7027,-7486,3231
18860,-24426,10772,12433,-1451,-11579,5963
18870,-26650,9406,10502,-11088,-7365,7317
18880,-21074,9328,9795,-24528,5229,8549
18890,-16873,9949,9306,-26184,9312,7508
18900,-13394,9774,7018,-25146,12768,5717
18910,-8306,9546,1148,-20667,20821,2471
18920,-5931,7673,602,-19837,23607,1767
18930,-4514,4344,1475,-19279,24881,1288
18940,-1985,-1884,2687,-15287,18722,-504
18950,-451,-3254,1485,-12842,13093,-1590
18960,569,-4876,1302,-12061,9207,-1970
18970,2987,-9294,2190,-12824,5529,-2776
18980,4328,-11037,2536,-13160,2266,-3925
18990,3335,-10609,2497,-13317,-2698,-5603
19000,3276,-7525,1656,-13184,-7373,-6351
19010,3263,-2948,1272,-12933,-10389,-7263
19020,1176,-1469,659,-11970,-7998,-7271
19030,-1333,-1689,305,-10463,-4499,-6160
19040,-1613,-2129,-676,-8702,-2130,-4890
19050,-3567,-3262,1088,-6105,295,-4943
19060,-3534,-3258,3271,-4361,1201,-5003
19070,-2528,-2236,4113,-2196,1024,-5314
19080,-6367,7125,-6342,-699,-4111,-5132
19090,-9110,11141,-13015,-2966,-6512,-2594
19100,-12713,12731,-13192,-6929,-5808,1732
19110,-30031,30395,-4915,-9312,2469,16949
19120,-32764,32748,9941,-3558,7919,28431
19130,-32764,32748,18272,11107,-1927,32734
19140,-25376,27166,21068,14965,-31383,4364
19150,-20908,14397,21311,5835,-12798,-11586
19160,-20994,15739,8349,-926,14508,-7527
19170,-32764,13708,11436,-21803,29526,168
19180,-32764,12394,15472,-21047,16570,-1822
19190,-32764,11404,14451,-13627,4334,-3015
19200,-29390,10035,10601,-6368,-9,-4846
19210,-22627,3510,6560,-485,9430,-8549
19220,-21371,1270,4383,966,14414,-9124
19230,-19931,3,1539,523,14404,-9387
19240,-17337,-287,2346,-6532,5037,-6849
19250,-14440,2304,573,-9558,3338,-3774
19260,-11290,3963,1888,-13627,3638,-1917
19270,-10016,5086,4672,-16915,5262,-1497
19280,-10469,6759,6891,-16731,8659,-993
19290,-9549,5735,8626,-15147,8488,-354
19300,-7362,4473,8728,-12334,7057,-229
19310,-2596,2216,6607,-8025,5091,-1104
19320,-2060,599,5652,-7692,5446,-1939
19330,-1233,-1126,4512,-8017,5117,-2657
19340,3155,-4514,2512,-9692,759,-4193
19350,3391,-4947,1292,-10826,-1843,-4499
19360,3049,-4311,-399,-12030,-3987,-3910
19370,2106,-2176,-2660,-13457,-5027,-2168
19380,1939,-1043,-3541,-12607,-3762,-1686
19390,1200,-310,-4216,-11240,-1816,-1355
19400,1223,1028,-4259,-9242,-495,-1269
19410,500,1742,-3309,-8963,-819,-1621
19420,-114,2491,-2213,-8848,-1431,-1450
19430,-837,3111,-1971,-8680,-2344,-849
19440,-5961,6624,-6874,-9677,-3154,1813
19450,-11843,8568,-9104,-12120,-3058,4900
19460,-19204,9064,-8591,-14999,-4747,8983
19470,-32764,9193,-2079,-7770,-15527,13581
19480,-32764,21682,-456,503,-22824,12820
19490,-32764,32394,5088,4287,-26760,10862
19500,-32764,32748,24240,4607,-16184,8733
19510,-32764,15890,32764,22777,-12354,-626
19520,-21235,18244,16757,23772,-31589,1879
19530,-19298,13364,20997,1323,-19834,6979
19540,-18294,13048,25648,-14348,-3572,11330
19550,-21107,16443,13146,-18121,17533,11146
19560,-6824,10358,5327,-18509,32639,1499
19570,-7538,8805,4319,-16426,32766,16
19580,-9529,6310,2315,-15857,32759,150
19590,-2034,-124,1757,-17983,24388,536
19600,3112,-2181,1917,-17481,17637,-339
19610,6106,-3844,1869,-16480,12358,-1560
19620,6190,-5080,1116,-14406,6304,-2058
19630,5742,-4447,1123,-13746,3680,-1776
19640,3887,-3716,1443,-13264,2021,-1953
19650,1281,-1599,1558,-11242,2143,-2026
19660,-1215,-166,1105,-10249,2553,-3144
19670,-3339,249,1321,-9714,1661,-4295
19680,-4263,-55,1581,-8957,26,-4349
19690,-2022,-387,822,-6518,-536,-2375
19700,-479,-19,-219,-5940,768,-2036
19710,-256,1819,-2428,-6569,1952,-2590
19720,-4070,9581,-10738,-8642,2169,-2251
19730,-7823,12041,-11151,-17290,151,83
19740,-15130,16596,-9499,-18437,-209,4118
19750,-21201,21143,-6001,-14817,646,10792
19760,-32764,29878,-4691,3110,4773,22411
19770,-32764,30548,-3428,4876,2567,22772
19780,-22683,10671,6039,-3379,-15544,4954
19790,-27183,12586,5602,-6725,-1397,-2228
19800,-32764,16244,12841,-11053,13839,-892
19810,-32764,19823,11432,-10341,17260,692
19820,-32764,15291,12053,-8328,5082,-9645
19830,-32764,8454,14605,-8576,2720,-16324
19840,-32764,1946,18019,-5308,520,-20532
19850,-32764,-6728,18013,9094,-3358,-18348
19860,-29403,-5834,13813,14766,-2695,-13625
19870,-22957,-3531,9199,16097,1770,-7925
19880,-20574,-1164,3951,11821,6153,-4289
19890,-16837,2428,5553,-9714,-443,-1028
19900,-13026,5897,5028,-15547,-2175,463
19910,-13087,8735,4465,-17642,-1148,-599
19920,-8570,8704,6027,-14494,1222,-1429
19930,-5587,6847,5521,-8348,3171,-532
19940,-2864,4825,2857,-1202,5644,622
19950,1149,837,-858,6695,8500,2081
19960,4551,-1935,-295,6731,9013,2854
19970,7387,-4498,1019,5485,8883,2739
19980,7276,-8086,2939,3738,8550,1830
19990,5411,-8100,2577,373,2698,-803
20000,3025,-6376,1073,-1250,-3857,-2395
20010,1488,-2246,-397,-3397,-10458,-2205
20020,-416,-203,-1804,-2760,-9632,-2210
20030,-1661,1514,-3316,-2041,-8364,-1896
20040,-1911,2758,-4331,-2061,-5401,-990
20050,-1500,2829,-4224,-2264,-4228,-1054
20060,-1884,3602,-5642,-2425,-3515,-1315
20070,-7853,6514,-11221,-4686,-2980,-128
20080,-14139,7960,-13638,-7416,-4216,2128
20090,-19424,6460,-10352,-9699,-7140,5457
20100,-30536,5451,-5644,-7159,-12562,7642
20110,-32764,26278,-5012,7671,-25697,15095
20120,-32764,32748,19252,6385,-27046,20118
20130,-32764,32748,32764,6250,-19668,11348
20140,-32418,23624,16987,28422,-30933,-1804
20150,-22697,13881,14877,13945,-24832,-702
20160,-20058,6760,18191,798,-11825,3558
20170,-23739,8682,13633,-2028,-1573,5164
20180,-23623,14441,5650,-5490,6205,7704
20190,-19618,14395,6345,-7660,5586,4914
20200,-14808,13697,6657,-6966,6692,1464
20210,-6332,13641,4472,-5645,18259,-4085
20220,-6411,11907,3464,-6765,26719,-5904
20230,-7314,9283,946,-8692,31966,-5651
20240,1248,-1744,4387,-14701,25254,-3473
20250,5646,-4474,2111,-13576,11963,-4835
20260,7482,-5773,-279,-12036,950,-4144
20270,9475,-6965,-1866,-10724,-7530,2219
20280,10829,-7484,-1178,-9444,-6310,4103
20290,8066,-6320,-2139,-7885,-4378,2879
20300,2573,-4009,1128,-7592,-3148,-2320
20310,1321,-3011,2886,-6668,-1011,-2767
20320,-1835,-1101,2964,-5062,1788,-2673
20330,-3606,434,3139,-4431,1854,-2201
20340,-3034,-162,4288,-4327,-2397,-1916
20350,-3719,-1493,4508,-2851,-3776,-2582
20360,-3533,-2765,4155,-480,-4515,-3299
20370,-5127,-3777,503,2346,-284,-4246
20380,-6352,2427,-7678,1162,-234,-4819
20390,-8230,7535,-14223,-3760,-2773,-3853
20400,-13427,10855,-17153,-10993,-3741,294
20410,-32450,23367,-9821,-16149,-1451,16788
20420,-32764,30460,3126,-7549,-3615,24123
20430,-32764,32748,277,7984,-9173,25760
20440,-32764,8329,23688,-4293,-3221,-17299
20450,-32764,8136,22932,631,-3254,-17418
20460,-32764,7686,20549,5064,-4483,-16160
20470,-32668,1835,22180,7455,-4518,-12447
20480,-25502,632,21562,9892,-1613,-10753
20490,-17205,651,17040,12802,6073,-7599
20500,-16583,272,12538,12624,13714,-6273
20510,-20246,-767,8424,3102,12122,-2675
20520,-20014,-846,7187,-3300,2636,-3083
20530,-15458,-120,8528,-8032,-8131,-4101
20540,-6208,-296,7111,-6485,-3885,-2361
20550,-4761,415,4354,-1887,7195,-188
20560,-4630,3401,-564,3016,16042,1541
20570,90,4543,-2599,5317,19091,2653
20580,11250,1901,-803,6100,14156,946
20590,9604,-1340,-411,6425,13030,209
20600,4844,-3434,-1646,6566,11754,478
20610,5735,-6082,-1699,6092,2967,1804
20620,7420,-6205,-2155,5534,-2534,1448
20630,6714,-5068,-3129,3788,-5920,1109
20640,-448,-60,-3264,481,-7597,202
20650,-1060,1923,-3811,1310,-6661,379
20660,-1869,3355,-4353,2504,-5485,131
20670,-572,2772,-3564,2807,-3624,-617
20680,-268,3329,-3695,1916,-3599,-1275
20690,-738,3655,-4579,356,-3782,-1621
20700,-6414,4241,-11411,-3895,-5392,-846
20710,-10848,4162,-12906,-6813,-10065,-883
20720,-21513,1916,-10984,-8955,-18876,-1743
20730,-32764,-1126,3433,5178,-32766,-3486
20740,-32764,12555,6668,18007,-32766,2294
20750,-32764,31048,13555,21072,-32335,11742
20760,-32764,32495,32764,12721,-14327,12227
20770,-31166,17461,32764,-27,16663,-777
20780,-18154,5515,32764,15264,2542,-5780
20790,-18017,6790,25306,28166,-9681,-11313
20800,-20637,7081,16676,14735,-5717,760
20810,-21445,9537,16199,8729,-2674,5104
20820,-20467,12009,13046,6321,-820,6724
20830,-17153,12530,6170,4509,383,7791
20840,-10249,10898,4660,-1723,3877,2081
20850,-7781,8188,5029,-4523,7972,-1914
20860,-6409,5059,5076,-5182,14127,-4402
20870,-5146,1952,807,-5215,22365,-5126
20880,-2100,-25,1127,-7526,20993,-3173
20890,571,-3904,2017,-7765,15467,2189
20900,2713,-4734,1194,-4332,11724,3250
20910,4174,-5193,211,-504,7139,1992
20920,6871,-5471,-1574,2099,2861,-74
20930,12196,-6763,-2001,-106,-3128,-4615
20940,8475,-4260,-1093,-2690,-4904,-6386
20950,9396,-1134,-394,-4843,-7775,-6435
20960,1357,3108,-2511,-6241,-8123,-8228
20970,-2174,3869,-2262,-5966,-5097,-6725
20980,-4117,3642,163,-4485,-1547,-3568
20990,-5004,2472,3112,-1143,667,-855
21000,-4717,-720,4231,8182,973,-135
21010,-5543,-1389,1515,9990,2467,-723
21020,-7762,80,-2963,8260,1823,-2021
21030,-16437,5243,-11880,-268,-9711,1173
21040,-23069,5852,-14308,-4954,-13032,8209
21050,-32764,9655,-12157,-6511,-11055,17774
21060,-32764,26850,-872,6017,-12070,23802
21070,-32764,27324,15367,13349,-13909,18567
21080,-32764,21850,20591,19795,-19229,8714
21090,-32764,14728,18534,4990,-20691,-20438
21100,-32338,10143,27756,737,-16291,-22301
21110,-32764,9471,28248,6989,-12478,-20860
21120,-28499,9174,27325,14233,-9563,-11346
21130,-19875,6264,28551,12880,-7739,-10204
21140,-17389,3436,26048,12865,-1748,-11145
21150,-20888,1572,15862,11476,13961,-4104
21160,-22831,513,13051,6755,11143,-1477
21170,-19120,-2649,11761,1063,2547,149
21180,-14527,-4588,9828,-2569,-3669,705
21190,-7138,-1469,4836,-2697,5069,-162
21200,-6562,1406,1897,285,14305,-1168
21210,-6611,4738,-3061,2944,23047,-933
21220,1493,4769,-4428,4436,30634,2008
21230,8317,2226,-1817,5419,29268,2754
21240,8449,-1286,-406,7267,25533,1681
21250,6227,-4296,192,9011,20146,1168
21260,7988,-7223,-2001,9959,5384,1820
21270,8104,-7793,-3487,7648,-1252,1831
21280,8808,-7162,-5167,4408,-6331,1721
21290,3123,992,-5675,1837,-8083,-402
21300,1002,4085,-6478,531,-8630,-1533
21310,-801,6594,-6404,718,-7651,-1309
21320,-875,8143,-4779,87,-6031,242
21330,-480,6563,-1659,-1977,-4323,827
21340,-16364,-1801,-12352,-10705,-20593,169
21350,-27926,-8412,-3877,-7027,-28739,-2853
21360,-32764,7766,740,17952,-32766,-993
21370,-32764,26920,10274,20394,-32743,17336
21380,-32764,32748,29218,12636,-23595,17669
21390,-29628,12202,32764,13260,3277,-8374
21400,-16758,7942,32034,27981,-19328,-14485
21410,-8153,3657,18792,24447,-28749,-13172
21420,-5928,-391,18347,13392,-19468,-7634
21430,-19964,9771,18027,8801,3795,-1303
21440,-23769,13915,15442,8952,7006,1704
21450,-24546,15971,13584,7569,8517,2689
21460,-19863,15311,10447,3099,6911,660
21470,-16902,13993,9797,-432,4610,-1809
21480,-12951,10056,9325,-3676,3288,-4174
21490,-11397,6273,7285,-5062,3468,-5398
21500,-6745,1723,3434,-5651,4924,-352
21510,-6217,-284,2916,-6433,5185,1767
21520,-5509,-2604,3338,-6949,4408,2620
21530,-4535,-3606,-347,-5791,1115,1368
21540,-2760,-3345,-763,-6465,-1185,-192
21550,-1311,-3410,-1100,-6835,-3558,-2839
21560,2582,-2413,-1537,-2526,-9080,-5672
21570,3608,98,-5010,822,-7896,-4746
21580,2620,2409,-9333,2679,-3431,-4628
21590,2602,2898,-9354,-187,3800,-5777
21600,3262,3021,-7464,-706,6604,-4172
21610,5176,3688,-6723,-576,7396,-1702
21620,7766,4310,-5278,-446,7257,457
21630,8192,5164,-1917,892,6000,-39
21640,2082,3584,-656,1364,3346,-2821
21650,-1355,1665,-1250,1473,988,-3191
21660,-3606,-61,-4112,1542,-1232,-2615
21670,-160,-3346,-3719,880,-4842,-2724
21680,-12288,-4819,-3357,2536,2153,-4677
21690,-19007,-3408,-5755,6389,10309,-1758
21700,-32764,8507,-3364,11270,14503,8570
21710,-32764,14738,-2108,15915,1773,17116
21720,-32764,31577,-6282,22381,-23058,18007
21730,-32764,32748,4548,17661,-32615,5858
21740,-32764,30034,32764,18803,-32766,-11271
21750,-26487,26039,32764,24371,-31876,-15471
21760,-14271,15723,32764,20694,-19986,-17810
21770,-23037,-342,32764,17557,8806,-18452
21780,-20237,-4536,32764,14114,8537,-11529
21790,-14823,-6673,29548,12415,5011,-5304
21800,-22425,-4442,21219,11448,515,-80
21810,-20164,-1252,9079,8784,-4251,-389
21820,-20810,529,4467,1427,-6569,-3179
21830,-14003,5966,-1427,-7463,2490,-4426
21840,-8129,6954,-3873,-8189,13241,-4584
21850,-4268,7631,-5582,-7322,24225,-5091
21860,-109,7852,-5045,-1048,32765,-3125
21870,3420,7019,-2909,3080,32766,-486
21880,6818,6080,-920,6925,32766,2409
21890,9780,1894,3018,7742,21952,7650
21900,9357,-2449,841,4270,4190,9863
21910,8939,-4918,-576,430,-11173,8474
21920,4860,-4796,-3284,-928,-17652,3609
21930,247,-2745,-6418,-1315,-16463,-2086
21940,-925,-2789,-5754,-1469,-11967,-2254
21950,-823,-2027,-5071,-1049,-7952,-2100
21960,-2641,-216,-3211,-1598,-3975,-2631
21970,-3323,452,-5200,-2047,-4346,-2399
21980,-5107,1298,-7344,-2201,-6590,-2859
21990,-6918,2194,-8110,-2281,-10814,-4220
22000,-17313,1579,-4326,-1498,-15468,-7379
22010,-32764,633,-545,2183,-15928,-7384
22020,-32764,17100,5722,15119,-24366,9787
22030,-32764,32402,32764,12151,-28784,14768
22040,-32764,32748,32764,10696,-23860,8596
22050,-24944,29521,24381,8852,-8292,-3927
22060,-20439,16306,21369,-1967,1135,-6144
22070,-21034,11978,15989,-3683,7344,-5524
22080,-22845,11561,11181,-3053,10610,-2433
22090,-21192,11156,5656,-4617,7198,2209
22100,-18960,9058,5305,-6863,2802,-31
22110,-15134,6338,4848,-8109,661,-2890
22120,-11553,2503,4792,-7717,5516,-5928
22130,-9831,850,3980,-7079,7999,-6207
22140,-6776,-1513,3722,-6617,8630,-5778
22150,-2708,-3147,2293,-5583,7988,-4784
22160,-590,-4265,483,-1285,8559,-2421
22170,267,-4307,-258,526,6563,-1722
22180,2191,-4546,-484,1379,3434,-1438
22190,6660,-5273,380,-657,-3470,-621
22200,9615,-3326,-358,-1550,-6468,-1162
22210,10326,565,-2295,-1980,-8513,-2780
22220,816,5732,-8183,-5855,7272,-3216
22230,-1501,5735,-4991,-5576,9357,-3808
22240,-1201,6266,-1711,-2928,5548,-4310
22250,128,6520,8,656,1928,-4718
22260,-3043,981,4856,3379,2688,-5716
22270,-7260,858,2510,4706,1573,-5700
22280,-9672,2391,-2740,5100,-4749,-4425
22290,-11817,3445,-8510,1712,-20074,730
22300,-16468,6864,-10546,1789,-16295,3102
22310,-32764,19771,-4939,1520,-477,11551
22320,-32764,20246,12181,3603,-990,18082
22330,-32764,19008,32656,13531,-10488,16373
22340,-32764,23802,32764,24740,-30197,-14304
22350,-32764,13899,32764,14762,-17772,-19533
22360,-32764,8894,32764,16095,-5285,-18359
22370,-26728,5421,16658,22666,10875,-11677
22380,-22149,5640,9723,17104,13420,-9776
22390,-21171,6183,8071,8364,8271,-8830
22400,-10134,3851,4915,-7704,-1569,-786
22410,-7097,4094,4704,-10913,-3052,1910
22420,-7276,4764,3033,-10191,-430,3020
22430,-6938,4963,2475,-7550,3935,3110
22440,-4757,2736,919,-825,9218,1158
22450,-2684,2884,393,921,11304,845
22460,946,1203,2183,1399,15829,2056
22470,2915,-926,2633,1860,16903,3277
22480,3404,-3057,2609,2450,15582,2835
22490,7106,-8317,1702,3364,6709,987
22500,5519,-9304,-1148,3320,1713,-353
22510,2479,-8603,-3169,2297,-3702,-2455
22520,207,-5994,-3953,1167,-7551,-3844
22530,-883,66,-5963,2537,-8050,-3983
22540,-995,1909,-7246,3599,-5450,-3622
22550,-648,2922,-7088,3955,-2150,-3074
22560,-830,4452,-4126,3246,-1287,-3479
22570,-33,6189,-3728,2771,-2814,-3433
22580,-979,8001,-4649,1512,-2377,-2266
22590,-3516,7088,-6531,-1187,-2084,-710
22600,-16528,6743,-10917,-5958,-11645,694
22610,-24940,4800,-6170,-7577,-18807,3168
22620,-32764,1279,2420,-4333,-24829,5331
22630,-32764,21039,8498,15986,-28331,4404
22640,-32764,32748,25057,12200,-19345,6308
22650,-32764,32748,32764,-211,-6970,4069
22660,-32310,23312,32764,15093,-6156,-6119
22670,-22816,15883,21713,12560,-7434,-5933
22680,-25726,9145,21688,3408,-351,-2253
22690,-25517,13166,9826,-2774,4608,4209
22700,-25996,14532,9106,-7346,4879,6076
22710,-24673,14328,8274,-10608,2718,6799
22720,-10519,6807,8523,-11327,-5836,5140
22730,-4840,4810,6293,-7581,-4610,2296
22740,-1539,2828,3803,-4368,-183,271
22750,493,1619,1026,-3457,5084,-126
22760,-384,-2167,-624,-6668,13585,710
22770,-1906,-3941,-427,-7089,13822,1830
22780,-1021,-5796,794,-6050,10129,2345
22790,1702,-6913,-536,-836,-3131,-395
22800,4130,-7044,-1548,605,-6657,-1890
22810,6582,-6303,-2707,456,-6495,-2572
22820,9805,-1051,-3594,-3713,-1854,-2976
22830,8542,2401,-3602,-6082,-143,-3438
22840,5603,5588,-3930,-7349,1170,-3591
22850,1588,7357,-3315,-7985,3671,-2679
22860,-219,5894,-2521,-6984,6181,-2562
22870,-1922,2644,94,-5553,9224,-2809
22880,-2640,-256,3056,-3214,11390,-3219
22890,-5042,-3204,5813,1596,13138,-3336
22900,-8380,-10,2170,2674,11389,-2903
22910,-12872,4705,-7074,-1896,-6101,906
22920,-17100,5633,-5888,-3146,-12181,4116
22930,-26659,10471,-3829,-483,-13988,7796
22940,-32764,14823,9430,5716,-13735,12940
22950,-32764,28177,10345,15361,-12024,12731
22960,-32764,19896,32764,8926,-6256,3705
22970,-32764,12664,28346,13432,-5706,-7595
22980,-32764,6255,25187,8673,-13185,-18008
22990,-31513,6226,30195,10131,-10022,-16354
23000,-26842,9491,27991,16553,-2897,-14529
23010,-24051,10076,21760,20488,9971,-12799
23020,-23374,5523,11225,15580,15985,-8996
23030,-16161,4508,6796,9289,6501,-5154
23040,-9965,3115,5807,1028,-1900,-2132
23050,-10371,1195,5281,-7365,-2066,-217
23060,-11415,1078,4159,-6520,943,-1948
23070,-7362,2480,2228,-4027,3859,-3183
23080,-2330,5192,-1064,-118,14149,-1546
23090,972,5916,-2189,948,17390,-840
23100,4693,5065,-1213,1098,18421,382
23110,4422,-8016,-1010,-45,-4563,-25
23120,-30,-5330,-1218,-512,-5654,-1917
23130,-821,-1788,-1885,137,-4733,-1977
23140,-2528,1599,-5351,2665,-3051,-2005
23150,-2763,2103,-5860,2743,-2564,-1546
23160,-2261,1436,-4204,2034,-2961,-1522
23170,-1856,2541,-2365,1928,-3173,-2810
23180,-4083,3646,-3061,918,-2662,-3143
23190,-6920,4669,-6095,-852,-3933,-2674
23200,-20500,7500,-9731,-4916,-13126,977
23210,-28125,4642,-1495,-6157,-20624,4773
23220,-31820,282,7405,-1487,-28750,6398
23230,-32764,3182,11433,9749,-32622,2368
23240,-32764,27974,15159,14417,-17303,190
23250,-32764,32748,30489,332,1553,2533
23260,-32764,31125,32764,-6497,11657,2307
23270,-25818,17863,29587,7754,8392,-4805
23280,-27341,14707,20147,10292,4033,-6314
23290,-26794,11866,12690,6228,601,-5144
23300,-27921,11733,8382,848,-503,-486
23310,-19967,8924,10394,-6899,-4784,7675
23320,-17518,6244,9581,-5449,-4521,7987
23330,-11275,3821,3806,-2115,-2255,6505
23340,-8152,2959,2429,-2938,-66,3976
23350,-6379,1480,2107,-4753,3665,1672
23360,364,-3933,2021,-7437,10142,-1161
23370,3550,-5012,2112,-7447,12251,-2423
23380,5222,-5377,1738,-6174,13932,-3207
23390,5014,-5571,1582,-3987,14270,-2723
23400,6584,-4301,-716,328,8017,565
23410,7749,-3610,-1634,-69,5099,1379
23420,9092,-2559,-1183,-1779,1696,314
23430,8644,-280,-1146,-4032,-2711,-2192
23440,3752,4408,-1894,-7849,-9616,-4274
23450,1114,5817,-2995,-8574,-9916,-3571
23460,-1493,6369,-4336,-8534,-7790,-2584
23470,-3674,4017,-574,-7251,1287,-1421
23480,-5007,1439,4860,-3857,5541,-2593
23490,-7377,-153,7240,1175,7682,-3569
23500,-10041,1070,1283,5117,4087,-2141
23510,-15464,3054,-2506,1767,-1886,-747
23520,-23609,3307,495,-1662,-9489,3542
23530,-27207,4990,721,-951,-12763,10384
23540,-32764,15458,7790,11742,-12981,20106
23550,-32764,23767,2278,16347,-14420,16948
23560,-32764,11879,11544,2512,5303,-4002
23570,-32764,9194,14013,4546,5288,-10746
23580,-32764,10017,11874,7395,-6902,-15504
23590,-32764,9973,24610,9070,-18210,-15463
23600,-32613,8559,29541,13124,-16884,-12022
23610,-24783,8649,28784,18209,-9228,-11568
23620,-25767,7993,24901,20601,3756,-13469
23630,-24737,4929,13131,15434,13476,-9165
23640,-17199,5141,7392,8864,2945,-5668
23650,-11880,4341,5959,153,-3860,-1819
23660,-9965,2816,5381,-9094,-3010,1150
23670,-9596,3856,3259,-8451,793,959
23680,-6245,4287,917,-6533,5188,60
23690,-74,5255,-1461,-1391,15461,-1181
23700,342,4901,-1699,779,19914,-375
23710,1690,5032,-3373,1890,20005,303
23720,6022,2647,-2699,1130,15726,743
23730,9856,-5722,547,416,8091,1961
23740,8151,-7837,-766,501,3264,1703
23750,3822,-7993,-1661,-856,-2149,679
23760,-807,-2239,-1475,-2391,-4497,-742
23770,-1990,183,-3527,-694,-3757,-1126
23780,-2781,1834,-5784,881,-2802,-1198
23790,-2115,1878,-5421,1360,-2843,-1192
23800,-1077,2506,-4349,1201,-3802,-1652
23810,424,3927,-3584,660,-3333,-1829
23820,-4350,5585,-4041,-2018,-1456,-2180
23830,-9303,6347,-6424,-3675,-3384,-1142
23840,-16505,7632,-8704,-5084,-8406,452
23850,-32764,1866,4227,-5333,-27390,5411
23860,-32764,391,11461,2174,-32654,4632
23870,-32764,6156,18010,12505,-32659,1058
23880,-32764,20455,12785,16896,-22057,-683
23890,-32764,31293,32764,-4331,24807,1321
23900,-32764,25412,32764,-1891,13378,100
23910,-29518,19359,30315,6939,-1343,-2925
23920,-27130,10041,16058,2450,-159,-361
23930,-26864,9816,12684,-1174,-1114,3195
23940,-24503,9627,11059,-4187,-4945,7231
23950,-20334,8068,10191,-5561,-6829,10920
23960,-8989,5757,7549,-4105,-6832,10819
23970,-7671,5315,5624,-3550,-2571,6140
23980,-9355,3939,4284,-4099,3642,1930
23990,-5773,318,1440,-6922,9021,129
24000,5523,-4463,-651,-1074,10232,1827
24010,5608,-4126,-1433,384,7448,1226
24020,5196,-3164,-1503,-1859,2024,-893
24030,5842,-2032,-969,-4228,561,-1499
24040,5005,523,-913,-6274,-575,-1640
24050,1388,4375,-1225,-7613,-2565,-2656
24060,-804,5138,-2038,-6751,-2565,-2802
24070,-511,5208,-3316,-5380,-2344,-2283
24080,-2211,2526,-2233,-3978,2486,-2774
24090,-3279,-301,1905,-3590,6766,-3238
24100,-4129,-2325,4571,-1710,9632,-3634
24110,-4563,-3460,5542,535,10516,-3531
24120,-9084,561,-2480,1607,3216,-2740
24130,-12205,3311,-6421,-382,-4046,-152
24140,-13862,4122,-6579,-1957,-8972,3993
24150,-32764,12859,3661,5118,-11798,10068
24160,-32764,17327,9923,13121,-12942,14891
24170,-32764,25745,11104,16603,-11357,14676
24180,-32764,25077,20694,13265,-4853,9347
24190,-32497,12128,9637,9853,-7150,-12179
24200,-31631,9521,12953,4531,-4754,-13846
24210,-32764,9054,20768,3774,-2658,-12948
24220,-32764,8320,27021,11664,-419,-11917
24230,-32764,6771,28008,12929,385,-12987
24240,-24389,4045,25007,11166,1815,-8741
24250,-19462,2948,21774,8805,4895,-5937
24260,-17534,2102,18246,6272,2828,-4074
24270,-15013,1914,5602,-2908,-4888,-514
24280,-11957,1443,2551,-6825,-3962,485
24290,-8337,2722,69,-7882,-41,-116
24300,-3332,3527,-1213,-6505,6753,-1404
24310,-358,6070,-4706,-363,21410,-963
24320,2786,6139,-6151,1262,21105,-2047
24330,7390,2442,-3324,1016,15151,-3759
24340,13188,-4170,1711,1935,9288,2751
24350,5961,-6311,825,1519,3451,1821
24360,1636,-5231,979,165,-2992,1047
24370,-574,-4134,616,-658,-4966,87
24380,-1288,-1325,-2302,952,-6044,-851
24390,-2123,51,-3741,1838,-6054,-1117
24400,-2782,1035,-5016,2396,-6170,-1102
24410,161,35,-5670,3008,-4988,-1384
24420,172,405,-5048,2704,-3871,-2489
24430,-1103,2234,-4647,2043,-2857,-3658
24440,-9936,4480,-6671,1508,-2003,-3782
24450,-16975,5060,-7684,361,-4046,-1912
24460,-24623,4497,-4826,21,-9921,708
24470,-32764,1017,8007,8018,-29952,3787
24480,-32764,6991,9779,15353,-32750,1728
24490,-32764,19113,17582,17989,-28204,2055
24500,-32764,32748,32764,-667,16602,7418
24510,-32764,32748,32764,-5693,22677,4530
24520,-31618,31324,32764,150,13700,182
24530,-29989,22246,26464,6651,2866,-2896
24540,-26522,8853,15519,1441,-7225,1120
24550,-24129,6732,12002,-1454,-6357,5948
24560,-20008,5368,9918,-3404,-6085,9709
24570,-11497,5975,7084,-4711,-5974,10022
24580,-8683,5950,5468,-5774,-3514,7421
24590,-7290,5313,3991,-7625,-660,3499
24600,-3487,-82,1518,-11683,8474,-2796
24610,-1557,-2499,1973,-13178,13069,-4060
24620,2183,-3787,694,-12865,14638,-3585
24630,5146,-4760,-1231,-11010,12913,-1438
24640,12200,-5885,-4294,-5394,4741,3944
24650,9135,-5092,-4818,-3299,2538,2935
24660,5458,-4179,-4462,-2783,1506,1725
24670,3494,-1362,148,-3985,412,973
24680,1642,1299,1426,-4321,116,-1124
24690,-1623,4136,3254,-5314,-321,-3241
24700,-2378,4030,3258,-5190,-1139,-3024
24710,-3058,2791,2418,-4232,-1220,-2803
24720,-3294,-1793,3638,-3149,571,-2822
24730,-3349,-3463,6150,-912,5004,-4232
24740,-2377,-5496,9265,982,5722,-4419
24750,-2425,-4529,4032,3350,4389,-3904
24760,-15546,8579,-11867,-2748,-6372,-1715
24770,-20270,12118,-11521,-7157,-8044,4250
24780,-30419,18098,-4894,-8060,-5327,10895
24790,-32764,25033,16770,-1790,-5664,16270
24800,-32764,31736,10858,21426,-15332,12200
24810,-32764,15343,32735,10645,21,573
24820,-32764,7236,23969,10275,-2746,-11378
24830,-31800,3893,17737,9327,-5870,-18255
24840,-32764,3578,23407,9730,-5632,-18141
24850,-32764,4849,21949,14453,-7278,-15112
24860,-24134,9165,16324,17925,-6920,-11742
24870,-18173,8557,12643,13936,5946,-11581
24880,-17718,6762,14608,9091,10489,-10214
24890,-6344,1065,6445,-5127,1618,-990
24900,-2656,441,4653,-3763,2862,-1928
24910,-2169,870,1043,-1540,4793,-3227
24920,-1059,3005,-1590,1230,15015,-939
24930,-294,1936,-1870,548,16615,-284
24940,3459,581,-1635,-450,12554,-1288
24950,10583,-5998,-353,-3,-81,-713
24960,8759,-7159,-1627,151,-6051,2241
24970,1008,-6446,-800,-1295,-5722,-985
24980,-1903,-1012,-1653,-999,-4676,-3556
24990,-1718,460,-3324,-15,-4895,-3721
25000,-967,1204,-4396,983,-5746,-3321
25010,-812,1198,-4209,1721,-5528,-2930
25020,-1216,4215,-2652,1950,-4876,-3951
25030,-2428,6237,-2631,1403,-4428,-4255
25040,-4229,7064,-3521,0,-4304,-3910
25050,-17815,6824,-6261,-3402,-4691,-737
25060,-28317,7684,-5210,-4509,-9018,2820
25070,-32764,3342,3823,-4281,-18766,7602
25080,-32764,4792,14321,12780,-32442,1763
25090,-32764,17279,16156,17563,-23971,-2034
25100,-32764,29411,21297,11084,-2562,2167
25110,-32764,32734,32655,-6265,20707,3846
25120,-23309,16804,30697,572,10514,2082
25130,-25518,12131,23465,6838,8153,10
25140,-29618,10608,16858,7415,2930,-419
25150,-22332,5764,13979,-4358,-4543,8371
25160,-17539,4400,12359,-7478,-4196,11054
25170,-14700,5769,8324,-7833,-2971,11572
25180,-5997,6738,4913,-8477,-3110,11461
25190,-3617,5871,2910,-9195,184,7759
25200,-2278,2304,1089,-8832,5989,4005
25210,-735,-612,24,-8439,11808,1362
25220,1960,-4199,-1287,-7879,16544,-170
25230,5042,-5418,-1358,-7853,14599,1527
25240,4388,-6713,-417,-6931,13742,3033
25250,5270,-7156,-1650,-3538,8331,1881
25260,2982,-5626,-2205,-3447,5044,-298
25270,3359,-4676,-2012,-4655,824,-2002
25280,5389,73,-717,-5927,-2118,-1741
25290,4330,2569,490,-7774,-3323,-1197
25300,1773,4128,970,-7131,-2518,-1073
25310,-57,3599,1139,-5623,-1188,-929
25320,-2297,-1647,4284,-2495,4112,-2357
25330,-4284,-3415,5189,-512,5949,-4140
25340,-4981,-4584,5187,1322,5650,-4962
25350,-9288,2535,-6798,1664,-665,-3604
25360,-11914,6583,-10950,-1980,-4632,207
25370,-15798,8317,-11857,-6018,-5628,6234
25380,-32764,20337,2953,-4993,-7302,15827
25390,-32764,24361,19257,3246,-16347,15779
25400,-32764,27722,20942,13192,-22951,14089
25410,-32764,12708,28475,15248,-13234,-8405
25420,-32764,6047,24893,11050,-9982,-16913
25430,-32764,1673,29385,8229,-8397,-18805
25440,-30074,4331,24078,18940,-10272,-15668
25450,-23572,8675,17577,19769,-5279,-12767
25460,-21120,9508,14078,15415,4794,-12409
25470,-21642,7654,11701,9193,11692,-11625
25480,-13313,5902,6686,936,5425,-3206
25490,-12045,4431,4896,-2470,4840,-1651
25500,-10545,3064,4155,-3639,6759,-437
25510,-5650,3317,2681,-1318,12360,5
25520,-4624,2707,2419,172,13864,-1394
25530,-3856,2946,1008,1398,14279,-2564
25540,-2355,4250,-690,2502,13376,-3622
25550,6251,3897,-1226,3375,8843,-2289
25560,11776,1883,-52,2858,5899,-976
25570,6518,-5990,2407,486,1749,1622
25580,1936,-5824,1239,-48,-2562,-104
25590,-334,-5168,-15,-440,-3770,-1651
25600,-1454,-3490,-1043,-727,-2860,-2492
25610,-2585,263,-2104,-630,-1976,-2436
25620,-1268,1090,-3501,208,-3746,-2077
25630,-154,997,-3603,917,-4401,-1962
25640,-679,2508,-2399,1536,-2655,-3438
25650,-2360,3749,-3039,1149,-1623,-3802
25660,-6204,4823,-4639,-160,-1745,-3489
25670,-23474,6898,-8459,-2708,-8759,597
25680,-32587,7308,-5579,-3293,-17857,4820
25690,-32764,4067,5568,-1294,-28497,7732
25700,-32764,7948,12299,5651,-32703,3875
25710,-32764,32713,18234,7276,-17285,750
25720,-32764,32748,28974,-2967,5133,6811
25730,-32764,32748,31946,-9911,19659,5604
25740,-30578,31890,32764,-10788,21800,1954
25750,-25144,12821,27635,1386,13454,2198
25760,-24489,7540,18900,4864,4322,3213
25770,-22791,3362,14232,2299,-4222,5001
25780,-15602,3580,10714,-7570,-8173,9305
25790,-8247,4385,5820,-8562,2611,3239
25800,-4342,1759,2499,-7437,3715,2213
25810,-18,-2208,-1894,-5618,9356,-1956
25820,3123,-3499,-3400,-4968,12115,-2778
25830,3303,-5809,-3129,-4825,14433,-2563
25840,4409,-7606,-1863,-3739,12498,-3229
25850,1135,-7180,-1950,-3232,9957,-4515
25860,1958,-6583,-2098,-3101,4529,-5721
25870,5944,-5055,-433,-3383,-1702,-5713
25880,10147,3696,-1985,-4900,-10763,-4712
25890,8376,6343,-2443,-5481,-11030,-4852
25900,3697,6748,-3273,-5589,-6810,-4046
25910,-2386,2693,309,-5417,4386,-1428
25920,-3823,-457,4128,-3963,7876,-1946
25930,-6900,-2731,6337,-1020,9179,-3464
25940,-7256,-3825,4784,1950,7787,-3740
25950,-9581,579,-2878,3620,2982,-3338
25960,-11649,4777,-8515,-110,-3204,-1070
25970,-13066,6270,-9254,-4376,-7322,4064
25980,-32612,13777,1165,-2974,-8121,15043
25990,-32764,22477,5825,5619,-12863,20803
26000,-32764,32276,2789,11879,-16139,21329
26010,-32764,19572,32676,11709,-5859,-796
26020,-32764,14813,18843,14166,-8707,-11445
26030,-32764,9498,18640,7009,-6060,-15154
26040,-32764,7409,26861,7053,-3729,-15289
26050,-32764,7422,25238,11812,-4797,-12770
26060,-29444,6407,24067,13804,-3004,-12518
26070,-20673,3729,17003,13675,3331,-11889
26080,-18170,3099,14870,7991,4999,-11112
26090,-14078,2951,11694,3113,963,-7068
26100,-13597,3577,8156,-642,-150,-2990
26110,-8517,2834,3831,-7611,-661,679
26120,-6036,2657,4169,-9236,1514,-32
26130,-3659,2911,2308,-8298,6241,-1922
26140,-1513,4464,1071,-5658,10141,-3405
26150,-2019,5561,-3126,1434,19475,-908
26160,1097,5266,-4359,1721,19905,-228
26170,6205,2582,-1781,511,14694,-1848
26180,12061,-5910,2823,295,4492,14
26190,6625,-8046,679,737,962,-148
26200,2424,-7045,-1406,208,-4507,-1252
26210,-1471,-2445,-2277,-1207,-6333,-2092
26220,-1987,-280,-3424,-913,-5390,-2400
26230,-2095,961,-4471,579,-4527,-2278
26240,-1325,2819,-4068,2124,-2722,-2594
26250,-1251,4612,-3754,1995,-1975,-3188
26260,-2171,6318,-3472,1100,-1537,-3488
26270,-5294,7031,-4248,-2346,-987,-1575
26280,-13224,6927,-5640,-3996,-1505,256
26290,-22641,7674,-6446,-5249,-5135,4430
26300,-32764,1303,7295,-3043,-25047,13881
26310,-32764,3745,14159,6096,-32361,8794
26320,-32764,15924,16859,14139,-30811,1652
26330,-32764,30146,17818,11849,-16813,3249
26340,-32764,32748,32764,-6762,18587,4830
26350,-29926,27081,32764,-4071,14987,1996
26360,-25214,16757,32764,6797,7841,-592
26370,-26553,12961,21780,12324,1172,-2106
26380,-24553,6017,12107,-3490,-2916,5931
26390,-21104,5277,10995,-10636,-2264,10591
26400,-18095,5682,10295,-14035,-1288,12347
26410,-9116,6900,7702,-13630,-849,9760
26420,-7596,7416,5610,-11331,1282,7173
26430,-6487,5961,2921,-9043,5027,5274
26440,-578,63,-1277,-7928,10267,1494
26450,1372,-3576,-2465,-8484,12413,657
26460,5640,-6648,-1379,-9240,11239,1520
26470,6145,-7609,-1313,-5821,10571,1684
26480,5025,-7125,-2031,-4483,9529,-23
26490,5507,-7366,-1856,-4583,7429,-982
26500,2169,-3294,-2017,-6723,1936,-2112
26510,2482,-46,-2518,-7697,-674,-1985
26520,2206,2687,-2032,-8755,-1475,-1489
26530,511,5124,-265,-8209,-813,-1401
26540,-2552,3773,175,-6265,1213,-2110
26550,-3751,554,2355,-4832,4295,-2457
26560,-5405,-2116,5168,-3290,7708,-3053
26570,-5133,-5238,7456,1402,8685,-3341
26580,-5645,-3425,2928,3134,6858,-2766
26590,-9688,2347,-6903,2035,858,-2334
26600,-15783,9087,-12612,-7162,-9640,6495
26610,-24281,14167,-10250,-8802,-9628,12113
26620,-32764,25235,2480,-6005,-10211,18391
26630,-32764,32719,13621,2455,-18705,22568
26640,-32764,27027,32764,6846,-7250,7413
26650,-32764,13661,32764,9788,-2278,-6966
26660,-32764,8111,27284,11834,-4145,-13723
26670,-32674,3814,25879,10677,-2366,-14415
26680,-16780,7025,16554,10661,5270,-10142
26690,-16259,6054,17787,5047,7221,-7424
26700,-14943,5882,11142,1968,7465,-2499
26710,-8479,2181,4103,-7719,3779,1483
26720,-4323,512,5368,-10810,4654,3078
26730,-4948,-56,5255,-10817,6372,2897
26740,-7867,1118,-1284,-3512,14631,-2452
26750,-1281,2853,-5021,-567,16511,-3644
26760,9085,3378,-3459,124,18307,-3784
26770,10856,-2983,2888,6,20643,-3295
26780,11103,-6679,1303,3737,6630,-897
26790,7397,-7970,-721,3244,-1585,324
26800,1305,-7120,-1318,1032,-4154,-338
26810,-1811,-2047,-1946,-879,-3285,-2565
26820,-2024,254,-2571,70,-2992,-2964
26830,-2548,1601,-4226,1597,-2885,-2781
26840,-586,2542,-4890,2095,-2539,-1821
26850,248,3459,-4014,1639,-2329,-2696
26860,-445,4710,-3776,1261,-1823,-3869
26870,-5203,5557,-6252,-962,-1357,-3017
26880,-11436,5850,-7869,-2718,-3546,-1029
26890,-19437,5808,-7001,-4257,-9306,2355
26900,-32764,1534,8040,659,-29080,9762
26910,-32764,6518,13653,10124,-32736,8272
26920,-32764,19586,15112,16488,-32636,4619
26930,-32764,32748,32764,-3179,-2124,6782
26940,-32764,28913,32764,-9119,14945,4858
26950,-30866,20005,32764,-2472,17088,2807
26960,-30798,12438,21260,11080,4696,-2519
26970,-28462,8911,18137,6934,-1887,1306
26980,-26151,7683,17993,1784,-6273,5816
26990,-18200,9675,13143,-785,-11311,11058
27000,-12186,8505,10796,-4252,-11740,8026
27010,-8410,6829,7896,-4384,-7749,4444
27020,-7207,6198,5201,-4375,-2063,1191
27030,-1798,1353,-708,-7563,5922,-1079
27040,5233,-2488,-1824,-10330,5353,-518
27050,8009,-4544,-4914,-11722,5714,-303
27060,9282,-5994,-5088,-12313,5202,402
27070,7689,-6340,-1574,-6917,10701,2787
27080,2616,-4552,-4589,-2354,16732,1626
27090,-204,-3315,-6441,-797,18434,192
27100,1203,-3833,-3164,-4976,5978,-3400
27110,3063,-1518,-1422,-6463,-738,-4019
27120,4034,3218,-608,-7183,-4076,-2929
27130,1787,6202,367,-8845,-592,486
27140,-190,5053,1742,-8486,3094,1128
27150,-1478,1849,4259,-6658,6983,849
27160,-3821,-3813,7162,1544,10437,-1803
27170,-7831,-4594,4083,4917,8892,-3357
27180,-11651,1829,-6654,4546,3635,-3455
27190,-25109,8721,-8702,-8286,-1306,9505
27200,-32764,13563,-662,-9290,-4581,20775
27210,-32764,20585,14020,-635,-14826,30205
27220,-32764,32748,1687,17311,-28585,22930
27230,-32713,23165,13150,1996,-7145,2396
27240,-30124,9783,20014,-3571,6090,-15894
27250,-32764,4249,21072,459,2755,-27720
27260,-32764,-2408,32163,9983,-13433,-27933
27270,-32764,-1929,32764,18543,-20347,-19453
27280,-28800,951,29812,27883,-23426,-14234
27290,-16724,6041,22534,31043,-12653,-14168
27300,-20002,6882,10338,17739,21146,-13586
27310,-18793,4935,11143,7689,15452,-8451
27320,-12659,5728,5483,1314,4093,-3747
27330,-5447,3081,3631,-6520,482,-948
27340,-3931,3104,2234,-6557,3165,-1571
27350,-2303,4696,-2985,-2141,13037,-2790
27360,-2436,6402,-5290,118,19112,-399
27370,1522,6792,-5986,596,21387,2125
27380,10276,465,-321,-290,17980,2343
27390,11502,-4997,1408,467,3583,-1041
27400,9081,-8000,1318,2096,-2536,-1244
27410,4906,-8154,-464,2947,-5823,-1378
27420,-3060,-5072,-3245,1086,-6790,-2346
27430,-2783,-2508,-4256,318,-6286,-1157
27440,-1598,81,-5047,707,-5703,-433
27450,-667,2960,-5673,3009,-3624,-1200
27460,-536,3691,-4584,2888,-2479,-1768
27470,-960,4610,-3510,1851,-1585,-2282
27480,-2292,5351,-2874,5,-933,-2351
27490,-11181,3353,-4558,-3777,-4134,-549
27500,-17969,2498,-5516,-3653,-10571,1590
27510,-28225,1660,-3638,-2253,-19990,4545
27520,-32764,1757,13990,10766,-32766,6799
27530,-32764,17688,14877,19141,-32729,6886
27540,-32764,32748,24717,15282,-23727,10943
27550,-32764,32748,32764,1606,3394,9415
27560,-20270,7266,18077,-1741,-315,2018
27570,-18604,3528,14178,-4974,-374,6519
27580,-17653,2331,10253,-5275,177,9137
27590,-11204,3719,4777,-6088,1569,5474
27600,-10135,4233,3595,-7957,5530,1197
27610,-7494,3170,1514,-9289,10461,-1819
27620,1788,290,-1250,-10949,16183,-3065
27630,6110,-1669,-1075,-11426,17130,-1735
27640,9623,-2826,472,-10828,18915,860
27650,8657,-3825,-499,-8789,20040,3232
27660,5583,-5521,-2711,-4194,16049,1533
27670,6493,-5581,-3128,-3255,8638,-2088
27680,7276,-5559,-3476,-3350,1053,-5664
27690,6428,-4601,-2735,-4292,-4398,-7359
27700,7280,3507,-1918,-6292,-9638,-3662
27710,6371,6180,-910,-7068,-8209,-2748
27720,3065,7638,-1224,-6885,-3954,-3055
27730,-5552,3554,181,-6061,4376,-3265
27740,-6208,-391,3344,-4225,4614,-3216
27750,-6956,-2790,4322,-298,3077,-4131
27760,-9420,-63,-3071,4683,2379,-4069
27770,-12835,5356,-8790,1809,2257,-1497
27780,-15995,6742,-10392,-3970,1483,4365
27790,-32764,13738,322,-6566,-1739,19089
27800,-32764,22166,9803,1439,-10101,25412
27810,-32764,29835,19658,11385,-22889,27490
27820,-32764,23271,21929,15136,-22933,3353
27830,-32764,14145,19274,10334,-10395,-15838
27840,-32764,8656,20950,4003,-1975,-22230
27850,-32764,1020,32764,7010,-4835,-17060
27860,-32568,2340,32104,16756,-11405,-13435
27870,-25476,5236,26299,23306,-11057,-11646
27880,-19196,6998,19968,23061,-2538,-11407
27890,-19112,2930,13582,10399,13235,-10976
27900,-19270,2105,13323,3727,7197,-8023
27910,-11293,3039,3584,-3895,721,-1004
27920,-5032,2395,2348,-6336,708,541
27930,151,3821,1049,-5481,6868,-2540
27940,-695,4312,-1996,-3589,12246,-3346
27950,-4321,5859,-4218,-1360,18591,-2300
27960,-21,6693,-6213,1,20622,-655
27970,11978,-849,65,-1764,11496,-2624
27980,13903,-5538,2463,-1182,7232,-101
27990,7223,-8001,3082,-323,4250,1982
28000,-2731,-2289,-2067,-154,-3647,-1687
28010,-2751,941,-3445,-736,-3983,-1376
28020,-1889,1859,-3566,-934,-3614,-955
28030,-986,480,-3164,1307,-3024,-1440
28040,-611,41,-2711,1856,-2920,-2060
28050,-629,324,-2548,1690,-3014,-2752
28060,-3011,2611,-4910,-22,-3286,-3553
28070,-6752,3549,-6172,-1385,-3550,-3063
28080,-14051,3636,-6547,-2103,-5639,-1709
28090,-23662,2021,-340,936,-17680,3888
28100,-31557,1184,5786,6079,-23828,5101
28110,-32764,5718,11761,13212,-28138,5244
28120,-32764,18143,10984,17996,-26642,6224
28130,-32764,32748,32764,-2010,4696,7938
28140,-32764,29437,32764,-8054,13732,3019
28150,-30757,18637,32764,3779,8841,-1704
28160,-25879,12524,17176,12218,-3898,-3732
28170,-28315,7976,19765,2094,-3323,740
28180,-26853,7276,18298,-1314,-2719,6637
28190,-25892,9201,12339,-762,-2631,9404
28200,-14478,7127,7140,-4394,-6221,5857
28210,-9735,6154,6349,-4970,-2966,1636
28220,-8043,6885,4471,-4871,2894,-2388
28230,1011,3218,1271,-7606,6860,-2145
28240,9212,-189,-166,-9926,6622,253
28250,7111,-3019,-2901,-11179,7891,690
28260,6744,-2791,-3551,-10556,3121,2679
28270,6116,-2428,-3570,-8084,143,2880
28280,4528,-1856,-4380,-5481,745,2481
28290,3381,-2245,-2509,-5722,134,1922
28300,2631,-1027,-135,-6925,-122,1613
28310,792,779,1938,-7810,-79,223
28320,-1130,2187,2808,-7748,193,-999
28330,-2992,3100,2413,-6149,877,-1180
28340,-3314,1283,2016,-5489,1461,-1063
28350,-3859,-1130,3642,-4724,3802,-1162
28360,-4292,-3816,4442,33,8168,-2420
28370,-5260,-1556,-711,1510,7374,-3299
28380,-9418,4476,-6819,110,5690,-2425
28390,-16102,10110,-10127,-3286,6176,2534
28400,-32764,20148,424,-8190,5333,16680
28410,-32764,26896,14469,-1540,-2251,23207
28420,-32764,32747,23345,11654,-14336,25626
28430,-32764,32748,12053,16300,-16242,17577
28440,-21669,7723,17469,219,2044,-10983
28450,-32764,-716,28848,5447,-9508,-11312
28460,-32764,1180,29397,14136,-16780,-9989
28470,-17297,5137,19493,23301,-2108,-12327
28480,-18466,4702,12530,20485,13881,-13557
28490,-21559,2203,10125,14195,17964,-12521
28500,-9864,3554,496,388,4324,-2926
28510,-5857,2467,3961,-5958,-786,-299
28520,-1708,2232,5026,-7381,-2152,1524
28530,-634,3129,1856,-4115,3209,-1597
28540,-555,2922,1117,-2257,6185,-2482
28550,-244,4023,-666,116,13038,-1852
28560,-2227,4199,-3504,1211,19005,-714
28570,7078,208,-1346,-2525,10800,-1322
28580,10824,-5201,2252,-3479,2038,-3027
28590,11025,-7981,994,-2248,-4006,-211
28600,-2623,-3294,-2262,-1798,-6244,-2457
28610,-2924,-682,-4150,-2184,-6035,-2337
28620,-1965,446,-5391,-2132,-6673,-1827
28630,-1314,617,-6013,-1302,-6464,-1814
28640,-877,1036,-5180,1563,-4210,-2957
28650,-1405,2111,-4923,1859,-3827,-3712
28660,-1988,3222,-4394,931,-3614,-3734
28670,-7419,4179,-4808,-1817,-3124,-1549
28680,-13765,4435,-5696,-2706,-4071,453
28690,-24447,2971,1011,-2692,-7870,3166
28700,-30089,2248,6267,5054,-18570,7235
28710,-32764,8161,12048,12572,-19689,5153
28720,-32764,21776,12452,16565,-15318,5929
28730,-32764,32748,32764,-3125,6569,4543
28740,-32764,25936,32764,983,5825,868
28750,-32764,23867,30234,14979,-6871,-2464
28760,-29474,8280,19177,1150,-5080,163
28770,-28242,7670,13624,-1164,-4236,4097
28780,-24235,6787,11414,-2447,-6033,7387
28790,-17264,6724,9214,-2285,-8302,7501
28800,-10020,7495,4549,-1615,-2130,-748
28810,-8784,6696,4222,-3286,3715,-3020
28820,-7419,6042,2368,-5153,6420,-3475
28830,3411,496,-31,-8601,3320,709
28840,10007,-2638,-1761,-9925,2953,2446
28850,7395,-4558,-3066,-10539,6830,2019
28860,6537,-4266,-3299,-10249,7193,2010
28870,5705,-3030,-4383,-5849,2372,2929
28880,5638,-3223,-4496,-5250,-4,2736
28890,5399,-2797,-3578,-6075,-1999,2730
28900,2774,1894,95,-9124,-1797,459
28910,-667,3501,1876,-10327,-211,-1563
28920,-1526,4480,2652,-8398,1212,-964
28930,-2064,3835,788,-6080,389,-957
28940,-3030,1191,-293,-4731,1152,-777
28950,-4507,-3948,3879,-2723,8299,-920
28960,-5321,-4353,4787,-112,10404,-1769
28970,-5679,-1669,628,1668,9965,-2044
28980,-10225,7543,-7595,296,6718,-1838
28990,-19677,10873,-6298,-6027,2769,8381
29000,-28735,14322,1541,-5585,808,12771
29010,-32764,19178,14013,2361,-4785,16568
29020,-32764,32748,8767,24260,-21732,15868
29030,-32764,21032,13660,12742,-9449,5100
29040,-27258,9117,15859,4190,6100,-6355
29050,-29321,7035,14956,3841,13302,-12436
29060,-32177,7099,20448,3181,9448,-11106
29070,-32764,7935,24801,5344,2092,-11768
29080,-32764,7104,29553,8844,-4140,-11816
29090,-28952,5669,26551,16272,-11298,-9731
29100,-20615,4529,21189,16584,-7936,-9108
29110,-16194,2093,14544,13998,708,-7672
29120,-15153,828,7227,1255,2421,-4414
29130,-13074,2131,1956,-3474,-1774,-2127
29140,-10172,1574,1884,-7724,-3105,-686
29150,-774,3179,2579,-9693,174,-3853
29160,4190,4527,287,-6964,8853,-4564
29170,5747,4588,-2373,-3050,19410,-2361
29180,2999,3885,-4007,1233,26885,1238
29190,7600,29,-1789,271,14531,-987
29200,11424,-5730,1277,58,1596,-2999
29210,5795,-7673,-72,1271,-4217,-960
29220,-1712,-5341,-1380,1412,-5304,-847
29230,-3974,-1704,-3179,937,-5460,-1834
29240,-4294,917,-4539,343,-5023,-1131
29250,-2027,658,-4864,845,-3452,-1762
