timestamp, ax, ay, az, gx, gy, gz
0,0,0,0,0,0,0
10,4342,193,16060,404,-474,-521
20,4631,-373,15197,18130,-15512,-15810
30,5377,-1077,16064,27454,-25951,-23824
40,6305,-1260,15493,1575,-1920,-759
50,6187,-1133,15404,1082,-1369,-828
60,6158,-517,15470,758,-1408,-1234
70,5204,318,16078,290,-1863,-1610
80,5535,332,16117,220,-2129,-1229
90,5520,-141,16408,361,-2136,-1246
100,4933,-426,16184,812,-2230,-1619
110,5269,-1199,15633,1739,-2740,-1200
120,7815,-975,25536,-1105,42,-33
130,5920,-1433,12269,8700,-1049,-2841
140,3642,125,10362,7436,-789,-3309
150,5011,529,15286,1912,-278,23
160,6571,-430,14546,2538,-795,305
170,6590,-616,15365,2188,-1608,-127
180,6554,-723,15051,1826,-1968,-1066
190,6407,462,15465,1898,-1543,-1652
200,6412,703,15844,2170,-1316,-1911
210,6253,324,15975,2264,-942,-2148
220,5062,197,17096,2334,-945,-2467
230,4666,-35,15221,2733,-1857,-2064
240,4977,623,13598,3382,-2384,-2008
250,6206,787,14351,3828,-2760,-1465
260,6248,1528,13618,4263,-2842,-1900
270,5698,1833,14209,3850,-2797,-2076
280,4423,1936,13879,3268,-2685,-1763
290,3626,1686,13780,2922,-2435,-1151
300,3771,1026,14099,2277,-2306,-22
310,5186,-1056,14460,1248,-2089,1771
320,5868,-1068,13984,840,-1691,2285
330,5518,-875,13851,-137,-1524,2426
340,4093,-1367,14281,-1282,-2006,2109
350,2917,-1178,13079,-2742,-3352,2184
360,3943,-1126,13744,-4117,-4274,2394
370,4733,-1133,14635,-5401,-4974,2302
380,6416,-4844,18055,-6656,-5702,548
390,7719,-2276,19439,-5898,-6179,336
400,8396,-2125,20773,-777,-7180,38
410,8323,-192,17492,6256,-9014,-797
420,5181,3267,14349,10912,-9779,-930
430,2419,4510,13823,10880,-12022,-677
440,64,5447,12165,10447,-16196,-65
450,2668,6583,7630,5442,-24148,4252
460,4523,5353,9423,1320,-22222,9284
470,6795,2783,12531,-1758,-18925,13999
480,8555,1247,13884,-2120,-17947,15374
490,7917,2690,9802,-203,-19592,11447
500,7085,3963,7979,-1280,-19073,10828
510,6402,3092,8508,-6220,-18992,12860
520,8453,1278,8029,-7646,-20986,13850
530,13109,-798,7842,-8007,-21346,15305
540,20754,-5774,14092,-5660,-12390,19641
550,23718,-5983,14785,-2662,-8731,18446
560,24272,-4514,13758,490,-6318,14087
570,19707,-1146,9536,2288,-7110,1730
580,16663,-1354,8817,372,-11227,-3377
590,13318,-2843,10299,-1654,-15508,-6335
600,10995,-4142,10994,-2051,-18837,-6972
610,14462,-3133,7338,2528,-22727,-7949
620,16334,-1960,2233,4895,-22375,-9379
630,16310,-735,1178,4648,-17697,-7818
640,14151,-1088,5600,-6767,-2072,8725
650,15985,-2785,9657,-9221,1781,10867
660,15633,-1562,7147,-6136,1585,7318
670,15697,-2141,6043,-3089,332,4496
680,18790,-2993,5503,-1246,-7337,-284
690,21911,-4081,8271,-1412,-9843,-2594
700,22150,-3974,8618,-228,-10936,-5861
710,18506,-2024,2678,498,-11799,-9568
720,17704,-2595,3059,-1651,-11438,-9124
730,16227,-1311,2303,-3107,-11413,-8592
740,16011,663,3163,-6012,-6717,-3434
750,16344,-1138,4049,-7455,-4083,-946
760,16095,-2203,3795,-8026,-2049,214
770,16576,-1618,2662,-8808,-892,899
780,17159,-1354,1554,-10466,-1358,935
790,15709,-1543,3980,-12705,-1989,920
800,13666,-2149,3020,-13245,-7918,2682
810,15825,-3903,1103,-12962,-8400,4326
820,15746,-3734,1736,-13027,-8639,2928
830,14328,-2807,-50,-13585,-10098,2494
840,12467,-3380,63,-16552,-10496,5614
850,10961,-5079,415,-17158,-11883,10004
860,10320,-7167,1034,-15687,-13215,14994
870,32748,-10091,410,-8966,-18664,15588
880,24202,-11721,1698,-5437,-14599,-3447
890,17808,-6871,56,-1418,-5611,-6878
900,17263,-5149,-4933,-4842,-7413,-5212
910,17757,-6124,-4205,-7939,-7455,-3713
920,18098,-7604,-3261,-8530,-7757,-3989
930,15020,-7556,-2961,-6620,-8314,-5365
940,15440,-6644,-1407,-1445,-6505,-5513
950,14170,-3025,-107,5988,309,-4816
960,15199,-4521,1456,8306,3175,-422
970,16316,-4667,2842,15240,5401,3775
980,16717,-3514,3605,17045,5768,3567
990,16746,-2347,3655,17093,5673,2025
1000,14245,608,3904,12064,6425,-1971
1010,13010,1304,3842,7914,6479,-2713
1020,12539,1604,3610,3617,6617,-2782
1030,11914,1444,4634,-223,7561,-3216
1040,10061,3761,4777,-1660,12339,-2969
1050,11193,6034,3856,322,15661,-1490
1060,12164,7394,3709,3542,19281,-528
1070,12159,7122,4149,8454,22493,-696
1080,12148,5270,4087,22294,25204,-3406
1090,11993,5969,2889,28557,25097,-4598
1100,13175,5707,2562,32135,24307,-4687
1110,16475,3266,2131,32765,19328,-6864
1120,17290,3657,1430,32766,16123,-8613
1130,18387,4302,1108,32615,12871,-9545
1140,18802,4924,1436,31715,9961,-9750
1150,23404,4981,2457,32675,5321,-7581
1160,23843,2935,3558,32766,3074,-6578
1170,24103,1171,3634,32765,-71,-5082
1180,24558,2265,1114,32766,-9573,-3562
1190,24718,3164,570,32766,-15224,-4742
1200,25903,896,4427,32766,-22630,-6149
1210,25391,-784,5921,32632,-23971,-4701
1220,26774,-1177,5766,32537,-24257,-1388
1230,27806,-1463,5393,32742,-23716,1932
1240,29587,-1521,4345,32707,-23954,5262
1250,30656,-3352,4518,31997,-25050,6804
1260,32354,-4940,4981,30534,-26496,8702
1270,30191,-6634,7719,25275,-29231,10604
1280,27710,-6955,9974,21613,-29766,12195
1290,25250,-6272,11800,17229,-29653,14516
1300,23914,-5576,13166,11974,-29109,16706
1310,22215,-3524,11931,-523,-25666,18723
1320,22351,-2775,10858,-6393,-23575,18891
1330,20272,-2247,10089,-10491,-20840,18719
1340,16629,-1199,8427,-11879,-15584,17434
1350,15730,-739,7395,-10397,-12723,17252
1360,14724,-331,6352,-8736,-10217,16895
1370,12984,1273,4804,-8172,-6953,15293
1380,13194,1762,4648,-9339,-5219,14451
1390,12966,2016,5064,-10801,-3011,13091
1400,13294,3515,3368,-12089,1619,9330
1410,14292,3281,1908,-12270,4273,8472
1420,14938,3112,567,-12132,7043,7494
1430,14326,2790,-1690,-11202,11490,5114
1440,14830,3552,-2884,-10883,12512,4486
1450,15285,2271,-3477,-10983,12934,4255
1460,15383,1064,-3410,-10175,12813,4061
1470,14750,-184,-6039,-5002,12043,2935
1480,13708,-723,-7309,-4288,11891,3036
1490,13983,-1462,-7425,-4958,10759,3486
1500,15729,-1946,-5051,-8165,9246,4098
1510,16548,-2682,-2691,-10086,9262,3387
1520,16660,-3748,-834,-11010,9771,2336
1530,17631,-3717,-196,-10754,10433,1751
1540,17345,-3012,-1679,-9690,11710,519
1550,17172,-3224,-2872,-9357,12715,704
1560,16921,-3158,-3774,-8485,13519,1634
1570,18639,-2623,-6900,-5262,13217,4344
1580,19202,-3026,-7867,-4561,12201,4725
1590,18353,-3692,-7910,-5359,10457,4102
1600,16744,-3664,-7203,-7979,7829,3075
1610,13798,-2520,-4041,-16038,2729,343
1620,12705,-1870,-2163,-19034,1433,535
1630,16160,-1786,35,-18339,1741,4750
1640,18367,-4633,2472,-15409,2637,6225
1650,16994,-3133,1403,-11703,3769,7138
1660,16231,1095,-39,-10859,4138,7380
1670,16062,-220,627,-11621,3956,6365
1680,16068,-1152,1099,-11433,4225,6220
1690,17469,-1301,1537,-10174,5012,7301
1700,18818,-4538,1325,-6318,6200,7525
1710,18225,-7647,896,-4519,5276,7121
1720,17075,-6614,-1423,-3848,3911,7357
1730,16765,-3145,-3292,-11455,2559,7816
1740,12491,-2164,-3516,-17610,1222,5208
1750,11101,-1738,-3732,-24141,-1453,3125
1760,12820,38,-4502,-29693,-3902,2335
1770,12020,451,-3213,-32736,-5653,-610
1780,10893,1783,-3549,-31536,-4999,-2068
1790,11430,2540,-3107,-28927,-3667,-2820
1800,13161,4314,-3563,-23175,1698,-5023
1810,12849,4463,-2880,-21543,4295,-8027
1820,13621,4107,-1930,-20339,7182,-10565
1830,14959,4365,54,-16151,11416,-12802
1840,16144,3902,1373,-12973,13809,-13751
1850,15044,2249,3876,-3490,27729,-11629
1860,14938,-1862,7291,4389,32614,-4043
1870,13902,-2245,6899,9159,32766,-213
1880,13042,-2252,6161,12426,32736,3251
1890,11230,-1637,6587,12659,28397,9172
1900,11983,-2602,10523,11101,22352,8127
1910,12495,-159,9643,11377,17192,4103
1920,7790,5502,7112,6941,13982,-3225
1930,6468,5260,8341,3255,13196,-3378
1940,6494,4925,10354,1455,12709,-2172
1950,10769,4592,11701,2608,12412,-981
1960,15076,-504,11791,10159,10976,-3110
1970,14215,-2009,11554,14126,10391,-2220
1980,13706,-1455,11595,16595,9025,-289
1990,13950,3847,13149,13397,5686,910
2000,16022,4731,15132,10074,4523,244
2010,18222,2964,15862,8933,3776,-839
2020,20041,1889,15816,10497,4014,-1464
2030,17564,3465,14511,15576,5058,-2705
2040,17395,4164,14186,15295,4568,-2801
2050,18573,4287,14891,13228,4334,-2670
2060,20512,4524,15898,10186,4899,-1771
2070,20475,4312,15367,9167,5019,-1342
2080,19760,3585,14576,7806,4409,-1281
2090,19536,3052,14206,5676,2010,-483
2100,18045,3001,13205,6156,1023,-251
2110,15461,2187,12159,7952,279,-19
2120,12864,1864,6048,12070,1710,254
2130,10700,3933,2963,11857,4097,-972
2140,8714,6100,1823,8792,6156,-3110
2150,7936,6357,8596,-1075,9118,-5299
2160,8822,5855,12685,-3288,10776,-4702
2170,12969,5977,14620,-2836,11674,-4280
2180,15397,5596,15275,968,11278,-8400
2190,16333,6321,12909,2800,8720,-10390
2200,16166,7516,11142,2966,5551,-11982
2210,14709,7630,10604,1670,4057,-12199
2220,12838,6930,11891,-22,4571,-11633
2230,11515,6192,11867,791,4651,-13657
2240,9138,6365,11159,2441,4817,-16349
2250,5268,7892,8535,5350,2689,-17625
2260,4543,10320,6755,5298,1553,-15363
2270,6528,13885,5354,3216,2658,-9996
2280,7412,15488,4694,-680,6761,-2488
2290,9502,11778,6193,-6623,10480,6100
2300,11991,9908,7282,-7882,7589,4546
2310,10262,6499,10103,-7154,4663,208
2320,9209,5560,11309,-5070,5860,465
2330,8134,4795,10982,-2383,6530,903
2340,6969,3931,8781,558,2875,1768
2350,7366,3510,8119,326,35,2381
2360,7851,3060,8118,-530,-1880,3343
2370,7998,2111,8700,-1412,-3003,4787
2380,9594,377,10229,-1156,-6660,7293
2390,11197,-170,11486,-41,-8239,7956
2400,13490,-313,11027,1730,-8979,7662
2410,15380,984,8349,4966,-9471,3705
2420,15545,1524,7220,5064,-8407,2158
2430,15094,1741,7435,4211,-7038,1073
2440,14454,1809,10400,3796,-6221,538
2450,14247,2676,8133,5824,-7835,908
2460,15714,2736,8211,5413,-8854,1403
2470,14394,2606,8507,4629,-10469,872
2480,16652,3500,11037,4746,-15849,2687
2490,15902,4151,11169,6418,-17564,2271
2500,15932,5596,9462,8288,-18298,2204
2510,16584,7859,10816,8359,-19240,2718
2520,13177,5520,21378,7627,-23250,3982
2530,12147,5000,20777,12608,-29648,5010
2540,465,-942,32764,17057,-32632,7396
2550,32265,12117,20766,29848,-29993,11027
2560,32748,17421,3472,14467,-8008,3337
2570,17955,9357,8032,-6864,18685,-5280
2580,15228,6610,8558,-8169,13007,-5067
2590,13896,5679,6954,-7731,6740,-4615
2600,12088,3945,5482,-8215,4310,-4251
2610,9628,3148,5980,-8114,5994,-4945
2620,7919,2963,6515,-7195,7065,-4797
2630,7578,3099,7478,-5399,7884,-3121
2640,11312,4447,7816,58,7615,1441
2650,14051,5866,6956,1942,7200,2811
2660,15832,7099,6249,2309,7055,3087
2670,16906,8354,4690,757,6325,2535
2680,17067,8551,4678,-711,5143,2085
2690,16308,8382,4258,-2364,3601,1481
2700,15566,7863,3924,-4232,1959,1003
2710,13764,6368,4716,-7043,-187,-201
2720,12550,6024,4459,-7360,-670,-657
2730,11369,5780,3912,-7574,-1078,-960
2740,10364,5238,3251,-8834,-2662,-1225
2750,10242,4844,3275,-9689,-3456,-1330
2760,9929,4220,3259,-10966,-4664,-1790
2770,9754,4144,3276,-11399,-4900,-2108
2780,9737,4315,3367,-11754,-4980,-2383
2790,11276,4873,5266,-11196,-4600,-2075
2800,11157,5216,5499,-10331,-4342,-2230
2810,10892,5539,5809,-9298,-4050,-2214
2820,11821,6018,6640,-6755,-3374,-1532
2830,12319,6235,6941,-5185,-3027,-1110
2840,12283,6280,7398,-3594,-2782,-705
2850,12061,5673,9182,553,-2209,900
2860,11632,5040,9234,3345,-1558,2029
2870,11290,4244,9389,6076,-755,3130
2880,11199,3717,9192,8857,-11,4079
2890,12240,3571,8612,13887,907,5885
2900,12974,3768,8224,15532,777,6367
2910,13712,3810,7973,16334,418,6592
2920,14323,3487,8639,16278,-59,6539
2930,15997,2063,14877,15404,-1104,5538
2940,15622,1751,20345,16286,-1826,4760
2950,16064,1906,22564,19062,-2986,4249
2960,16900,2480,17665,19982,-4807,2349
2970,16452,3844,12286,12119,-6008,261
2980,14160,3046,10088,-100,-6995,-1079
2990,13504,1722,8687,-14113,-7128,-1003
3000,14806,2724,7730,-14766,-4510,-566
3010,15302,3023,8300,-14648,-443,-77
3020,18437,5181,6702,-14310,4208,674
3030,21558,6615,4323,-15466,6437,562
3040,23729,6869,6489,-17185,9364,-856
3050,19328,10377,9927,-16363,4937,-4983
3060,20840,10773,8916,-10694,-2300,-3677
3070,22300,9775,8618,-9244,-7286,-2652
3080,20137,8893,8521,-7610,-7821,-2977
3090,14005,7677,7682,-3885,-5505,-3274
3100,12233,7030,6587,-2173,-3400,-2370
3110,11426,6229,5480,-821,-1410,-1262
3120,13589,4711,5472,1726,969,1387
3130,15273,4892,5536,3270,1691,2163
3140,16298,5352,5476,4602,2454,2544
3150,16743,5251,5860,5621,3149,2962
3160,16798,4563,5831,7765,4206,3800
3170,16625,4259,5531,8911,4561,4079
3180,16346,3941,5187,9945,4353,4225
3190,16247,3578,5036,10690,3517,4299
3200,15199,2573,5144,11508,1095,4187
3210,14390,2316,5187,11795,338,4109
3220,13511,2112,5308,12000,-115,3999
3230,12578,1900,5537,12340,-513,4081
3240,12268,1837,5773,12562,-503,4062
3250,11866,1808,5948,12858,-388,4099
3260,11280,1883,5887,13549,83,4339
3270,11132,2052,5726,13790,311,4462
3280,11037,2244,5478,13875,462,4462
3290,10919,2801,4847,13298,746,4130
3300,11065,3124,4758,12566,779,3752
3310,11105,3411,4718,11684,694,3219
3320,11685,3889,5094,10743,575,2740
3330,11958,4103,5290,9052,212,1734
3340,12282,4235,5596,8359,-17,1297
3350,12699,4346,5875,7774,-284,930
3360,13510,4404,6445,7033,-747,400
3370,13797,4289,6761,6819,-812,242
3380,13922,3992,7030,6701,-800,184
3390,14061,3662,7352,6715,-744,203
3400,14351,3228,7891,7322,-466,364
3410,14385,3166,8000,7862,-355,465
3420,14392,3168,7938,8455,-308,598
3430,14849,3391,7969,9467,-144,955
3440,15502,3740,8047,9865,-7,1112
3450,16100,4108,8139,10079,100,1199
3460,16791,4463,8065,10036,79,1256
3470,17984,4692,8163,8723,-264,921
3480,18148,4609,8250,7589,-522,541
3490,18135,4356,8389,6256,-866,78
3500,18593,3860,9223,3297,-1485,-552
3510,19523,3691,10032,1981,-1632,-680
3520,20388,3702,11040,932,-1698,-727
3530,20779,3707,13754,-268,-2406,-492
3540,20877,3356,14759,-120,-2769,-66
3550,20689,3187,15295,156,-2079,72
3560,19769,3800,11880,54,2322,-92
3570,17814,3993,9577,-817,4027,-517
3580,15777,3980,7459,-1757,4484,-888
3590,13967,3841,5635,-2906,3995,-1238
3600,11147,3692,4363,-5993,2486,-1844
3610,10652,3727,4480,-7093,1778,-1665
3620,10946,4256,4148,-7762,1095,-1289
3630,12745,6069,4525,-9409,305,-1116
3640,14037,7424,4899,-10645,-355,-1536
3650,15319,8612,5076,-12120,-1483,-2236
3660,16423,11068,3871,-13780,-2806,-3244
3670,16085,11369,4016,-18566,-3848,-5853
3680,15337,11037,5053,-20913,-3815,-6659
3690,14561,10344,7183,-21930,-3579,-7146
3700,12699,8919,10068,-18223,-2737,-7627
3710,10743,8092,9736,-14440,-1880,-7385
3720,8690,6963,8508,-10584,-541,-6323
3730,6697,5188,8273,-7574,1489,-3251
3740,8269,5809,5358,3932,3148,728
3750,9022,6111,4341,4344,3282,621
3760,9588,6532,3796,3796,3164,-1
3770,9906,6558,3542,733,2155,-1689
3780,10432,6191,3931,-1135,1258,-2290
3790,10229,5649,4630,-2825,741,-2640
3800,11075,4512,5950,-4836,-695,-2338
3810,11289,4020,6156,-4884,-1121,-2010
3820,11388,3970,5706,-4400,-1405,-1729
3830,11566,4204,5226,-3823,-1605,-1412
3840,11484,4320,4917,-3010,-1954,-428
3850,11935,4112,5230,-2422,-2083,399
3860,12134,3803,5672,-1725,-2017,1235
3870,12733,2797,7239,168,-2377,2973
3880,13556,2036,8173,1602,-2734,3807
3890,14275,1156,9456,3527,-3236,4321
3900,16506,542,9524,5912,-3975,4390
3910,17088,-108,10753,9245,-3266,3897
3920,17723,-1195,14006,10114,-3850,3458
3930,18073,-2452,19231,11441,-5121,3213
3940,17979,-3376,26009,18032,-9168,2227
3950,16628,1121,19279,17354,-10363,1227
3960,16064,5975,13174,8352,-11726,-156
3970,13129,5536,9276,-10416,-11177,-1182
3980,14567,4448,5983,-13156,-11358,-499
3990,17723,4868,2777,-14882,-7779,120
4000,21846,7117,-1247,-21012,9762,-411
4010,24443,7766,1012,-24464,18743,-2195
4020,22470,7890,9465,-25461,24976,-5422
4030,19513,11627,13711,-16885,-93,-6707
4040,23178,9598,12469,-13065,-12529,-5295
4050,17951,8359,11687,-8348,-9796,-5162
4060,13959,7839,6096,-4490,-6960,-4954
4070,11717,6415,4300,-1583,-3305,-2261
4080,12648,5196,4250,-919,-978,-900
4090,13603,4768,4816,-261,964,-132
4100,16015,4833,5889,1469,2373,1118
4110,17431,4836,6207,2893,3171,1927
4120,17691,4378,6677,4564,4458,2651
4130,18174,2902,6675,8470,6570,4491
4140,17471,2190,6332,10460,7028,5195
4150,16637,1539,5912,12162,6582,5786
4160,15914,815,5775,13573,5323,6164
4170,14208,305,5144,15909,1903,6149
4180,13357,399,4970,16501,903,6215
4190,13076,568,4923,16584,-87,6227
4200,11930,912,5055,16300,-1266,6120
4210,11676,1290,5019,16107,-1572,6071
4220,11256,2104,4464,15699,-1689,5929
4230,11133,2654,4047,14011,-1543,5372
4240,11124,3202,3807,12526,-1266,4783
4250,11183,3595,3843,10676,-925,4140
4260,11232,4340,3815,6822,-742,2514
4270,10980,4614,3810,4945,-882,1590
4280,11183,4666,4236,3261,-1227,847
4290,11571,4814,4582,1987,-1561,198
4300,12220,5055,5604,403,-2072,-760
4310,12611,5109,6112,197,-2340,-1016
4320,13024,5069,6605,300,-2539,-1115
4330,13260,4677,7303,1299,-2728,-1156
4340,13128,4483,7391,2089,-2782,-1110
4350,13199,4342,7483,2955,-2717,-989
4360,13383,3865,7948,4763,-2149,-344
4370,13467,3747,8085,5768,-1836,45
4380,13631,3724,8102,6754,-1657,410
4390,14291,3724,8371,7574,-1560,817
4400,15778,4170,8702,9018,-1064,1445
4410,16362,4372,8793,9345,-941,1555
4420,17105,4531,8953,9320,-1082,1487
4430,17291,4695,9017,8489,-1573,862
4440,17484,4671,9086,7415,-2255,438
4450,17410,4420,9569,5941,-3161,-6
4460,19227,3760,10559,2297,-5175,-1166
4470,20196,3489,11809,81,-5413,-1699
4480,20291,3331,14042,-1848,-5582,-2078
4490,20062,3633,16447,-1782,-3934,-1462
4500,21083,3653,15054,-1094,-1191,-1012
4510,21364,4033,12371,-1320,2590,-1308
4520,17625,4186,8513,-2415,5876,-2359
4530,15550,4287,6747,-3897,6284,-3055
4540,14128,4360,5320,-4957,5118,-3649
4550,12415,4395,4363,-6409,4112,-4258
4560,10920,4999,3211,-9357,2180,-4700
4570,11111,5322,3481,-10849,1422,-4540
4580,12242,5869,3899,-12296,601,-4284
4590,15500,7883,4628,-13708,-235,-4471
4600,16496,8937,4465,-17026,-1703,-5057
4610,16936,9071,4880,-19084,-2142,-5733
4620,16874,8731,5639,-20749,-2216,-6376
4630,15405,7622,7244,-21284,-1693,-7262
4640,14262,6996,7824,-20091,-1193,-7050
4650,13414,6316,8215,-18097,-688,-6403
4660,12514,5707,8409,-15447,198,-5629
4670,9620,4828,5841,-1202,3838,-1414
4680,9415,5073,4102,1143,3750,-770
4690,9779,5185,3735,1229,3390,-722
4700,9622,5302,3297,808,2888,-871
4710,9967,5332,2941,-60,1968,-1060
4720,10517,4773,3568,-2481,468,-1513
4730,10813,4271,4072,-3441,-165,-1711
4740,10991,3762,4789,-4129,-645,-1941
4750,11493,3075,5387,-4278,-1520,-2102
4760,11432,2901,5391,-4004,-1838,-2048
4770,11554,2628,5459,-3714,-2031,-1801
4780,11758,2455,5511,-3270,-2141,-1443
4790,11987,2032,5846,-1840,-2314,-487
4800,12253,1518,6294,-833,-2425,67
4810,12495,1328,6394,537,-2548,555
4820,12880,1030,6679,3188,-2582,1554
4830,13482,823,7007,4351,-2669,2145
4840,14167,609,7486,5488,-2672,2644
4850,15403,472,9166,6488,-2579,3006
4860,16363,181,11534,8061,-2898,3492
4870,16570,-259,17182,9592,-4035,3559
4880,16479,-1061,24387,13709,-6122,4001
4890,17108,-1184,25718,28790,-10680,3911
4900,13395,4893,12136,25966,-13461,1898
4910,15616,5743,9858,-8419,-10853,-389
4920,14203,3954,9138,-15705,-8839,-1289
4930,15148,3276,8725,-16654,-8381,-789
4940,17908,2876,8511,-15273,-5300,-114
4950,21282,5128,2320,-15601,4306,-159
4960,23703,6091,-849,-19000,10176,-554
4970,24359,6497,58,-23176,18214,-2012
4980,16191,9036,16209,-23187,18639,-6824
4990,21971,9629,13949,-17999,-2507,-6967
5000,23331,8774,12470,-12365,-11561,-6091
5010,13300,9902,7232,-3390,-7935,-5844
5020,11222,9292,4866,-1905,-6932,-4675
5030,10888,7805,3047,-1081,-4563,-2904
5040,11686,5799,2870,-602,-1143,-1173
5050,14593,3334,5807,1490,3001,663
5060,16273,3073,6551,3740,3617,1390
5070,17448,2573,6870,6383,4432,2274
5080,17988,1517,6513,9084,5399,3293
5090,17815,-115,6838,13905,6125,5337
5100,18359,-1200,6460,16441,5586,6413
5110,17801,-1226,4542,18688,4524,6686
5120,16466,-1433,3239,19055,260,6363
5130,15047,-821,2923,18456,-945,6108
5140,13496,1002,3288,16603,-1976,5946
5150,12847,2270,3212,15551,-2117,5728
5160,12683,2872,3303,14158,-2582,5275
5170,11601,3396,4159,12582,-2849,4398
5180,11290,3724,4292,10178,-2742,4097
5190,11108,4063,4302,9376,-2537,3830
5200,10914,4465,4262,8498,-2307,3421
5210,10329,5374,4141,6761,-2132,2200
5220,10208,5522,4324,5938,-2178,1718
5230,10183,5438,4645,5324,-2179,1415
5240,10534,5489,4918,5062,-2166,791
5250,10967,5656,5206,5046,-1887,548
5260,11538,5810,5501,5043,-1616,366
5270,12374,5809,5910,5071,-1385,292
5280,13327,5560,6573,5558,-1055,50
5290,13433,5160,6927,5949,-1004,-12
5300,13483,4761,7219,6566,-935,9
5310,14114,4224,7861,8265,-567,340
5320,14415,4077,7935,9287,-299,555
5330,14534,3945,7884,10276,-123,722
5340,14952,3445,8510,11063,-36,1492
5350,15597,3504,8522,12356,-444,1561
5360,16272,3742,8780,12577,-757,1627
5370,17089,4064,8749,12191,-1399,1485
5380,18689,4188,8533,9342,-3296,390
5390,19058,3997,8452,6762,-4084,-562
5400,18600,2352,10021,550,-5472,-2690
5410,17828,1357,11348,-1835,-5330,-3514
5420,17903,362,12929,-3132,-4631,-3672
5430,19320,257,16036,-3386,-1189,-2482
5440,19194,2037,16083,-1318,926,-1682
5450,21239,3471,14234,-85,2687,-664
5460,22951,4176,11668,128,4657,-405
5470,22020,4345,8810,-2233,7573,-1408
5480,19723,4282,7673,-3338,7094,-2134
5490,17639,4099,6440,-4270,5816,-2699
5500,13505,4018,4588,-6000,3639,-3625
5510,11895,4355,3787,-6884,2545,-3872
5520,11143,4749,3023,-7897,1608,-3825
5530,10786,5109,2874,-9098,1242,-3643
5540,12115,6851,2690,-11586,296,-3384
5550,13379,8175,2484,-13342,-759,-3649
5560,14698,9389,2630,-15591,-2146,-4258
5570,16103,10570,4009,-19904,-4936,-5693
5580,15292,9667,5645,-21943,-4073,-6423
5590,14748,8956,6804,-21554,-3454,-6662
5600,13906,8467,7294,-20009,-2909,-6778
5610,9363,5114,7992,-4614,2105,-2603
5620,9061,4858,7151,-982,2669,-1610
5630,9038,5025,6116,1912,2846,-925
5640,8799,5539,4251,4959,2843,-191
5650,8847,5791,3398,5387,2937,29
5660,9034,5793,3360,5138,2714,3
5670,10016,5677,3210,3378,1829,-587
5680,10188,5416,3691,2065,1373,-1003
5690,10962,5049,4361,841,768,-1220
5700,11271,4601,5065,-159,300,-1356
5710,11882,3176,6046,-1524,-737,-1014
5720,12558,2569,6201,-2032,-1366,-567
5730,13016,2135,5981,-2360,-2141,-503
5740,12303,1940,5764,-2134,-2009,-896
5750,11979,2813,5552,-867,-944,-417
5760,12393,2762,5920,-616,-1453,196
5770,12782,2406,6645,-15,-1823,919
5780,14083,1048,8217,3106,-3356,1929
5790,14695,981,8275,5268,-3724,2201
5800,15335,888,8314,6944,-3619,2559
5810,16098,789,8901,8012,-3369,2890
5820,17726,-682,15193,9251,-3803,2985
5830,18300,-2243,22400,11369,-5483,2917
5840,19081,-3865,30957,15970,-7426,2725
5850,17374,5619,11895,14638,-10961,-439
5860,13790,5867,10136,-1332,-11754,-1548
5870,12349,3234,8247,-12141,-12627,-1253
5880,15201,2580,4463,-15559,-5793,562
5890,16980,2811,5660,-15080,2931,1066
5900,19182,3576,5542,-14749,9562,1031
5910,23875,6045,5122,-16923,17997,-67
5920,21641,7034,9461,-17220,18756,-1874
5930,19753,9848,11460,-14853,10615,-3310
5940,23033,10103,10898,-12652,-3040,-3112
5950,19131,8791,9588,-6222,-8059,-3799
5960,15209,9066,8815,-3558,-6683,-4077
5970,12702,9224,7141,-1622,-5706,-3572
5980,10404,8700,3473,162,-1349,-1678
5990,10972,7448,3873,-122,675,-631
6000,13059,6321,4550,98,1882,401
6010,16386,5915,4493,1772,2413,1438
6020,18096,5483,5283,2446,2785,2044
6030,18932,5152,6074,3478,3359,2421
6040,19238,4523,6803,4863,4098,2884
6050,17657,2971,6443,8842,5318,3760
6060,16675,2041,5939,10817,5453,4451
6070,15467,1322,5245,12548,4726,4910
6080,13626,198,4833,14866,1982,5108
6090,13006,52,4897,15479,988,5170
6100,12316,243,4918,15882,213,5110
6110,11608,1224,4910,16056,-583,5092
6120,11264,1669,4925,15955,-818,5003
6130,10894,1999,4995,15834,-1005,4987
6140,10587,2561,4944,15512,-1183,4966
6150,10587,2941,4683,15124,-999,4811
6160,10716,3280,4405,14346,-809,4449
6170,10803,3970,3996,11956,-116,3439
6180,10869,4223,3937,10276,-50,2802
6190,11101,4530,4021,8570,-143,2092
6200,11379,4717,4246,6883,-323,1369
6210,12343,4910,4963,3981,-878,67
6220,12872,4855,5373,2861,-1163,-453
6230,13184,4694,5821,2044,-1500,-957
6240,13631,4058,6756,1448,-2017,-1521
6250,13919,3713,7168,1762,-2158,-1603
6260,14219,3385,7673,2354,-2134,-1501
6270,14293,3219,7791,3271,-2163,-1300
6280,14249,2868,7943,5348,-2209,-784
6290,14567,3026,7858,6422,-2134,-457
6300,15183,3281,7761,7134,-2417,-162
6310,16978,3840,8000,6871,-3041,-269
6320,17649,4131,8369,6086,-3273,-547
6330,18792,4333,8911,3474,-4411,-1278
6340,18570,4114,9347,1858,-4814,-1828
6350,18345,3931,9417,262,-5410,-2533
6360,17850,3720,9898,-1367,-5772,-3149
6370,18324,3447,13345,-3313,-5283,-3252
6380,18811,3762,16070,-2570,-4113,-2427
6390,19393,4423,16615,-555,-2761,-1381
6400,22535,5670,12240,1856,1197,-677
6410,22661,6072,9628,462,3977,-1382
6420,21382,6000,7914,-1814,5453,-2479
6430,16785,5200,5598,-5731,4114,-4425
6440,14806,4707,4740,-7326,2923,-5049
6450,12723,4363,4024,-8663,1919,-5478
6460,11380,4220,3793,-9678,1090,-5553
6470,10381,5037,3021,-10946,69,-4818
6480,11480,5768,2925,-11802,-491,-4035
6490,13416,6996,3032,-12918,-1298,-3532
6500,15458,9172,3109,-16403,-3208,-3998
6510,16042,9373,3983,-18408,-3997,-4264
6520,15885,9348,4674,-19707,-4306,-4620
6530,15321,9110,6315,-20206,-4233,-4934
6540,13901,7528,10018,-16507,-3622,-4591
6550,11691,5243,8746,-1800,925,-1854
6560,11160,4867,8010,494,2221,-1305
6570,10217,5537,5987,3618,4509,-619
6580,9923,5688,4475,3964,5286,-329
6590,9817,5765,4046,3329,5347,-218
6600,9960,5870,3153,474,3638,-963
6610,10080,5874,3273,-1434,2463,-1604
6620,10209,5635,3749,-3329,1451,-2125
6630,10629,5562,4240,-5066,403,-2592
6640,11164,5077,5327,-8110,-1560,-3077
6650,11265,4884,5802,-9193,-2828,-2974
6660,11247,4725,5550,-9826,-4456,-2772
6670,12469,4496,4025,-9894,-8595,-2128
6680,12021,2926,4112,-9558,-6518,-2893
6690,10174,3967,3997,-7800,-840,-3852
6700,9286,6075,4611,-5368,2464,-3519
6710,11429,5210,4764,-3144,-1257,-888
6720,12431,4243,4958,-2146,-2469,-167
6730,12015,3588,5076,-758,-1870,133
6740,11495,3110,5538,1755,-1179,1320
6750,12283,2486,6198,2687,-1746,2000
6760,12983,2005,6770,3905,-2159,2331
6770,15078,908,8620,7255,-2328,2479
6780,16388,667,9520,9551,-2205,2362
6790,16543,-218,12967,11767,-1923,2437
6800,19805,-6232,29849,20491,-7756,3179
6810,20314,-1203,23145,25445,-10729,3016
6820,20649,5131,9802,16244,-13543,1789
6830,18314,3676,8781,-5827,-14331,579
6840,15568,1196,4564,-20609,-12938,-1034
6850,16775,2528,2763,-18815,-4772,46
6860,18694,2626,3711,-18526,5308,1069
6870,22248,5506,6103,-17726,17835,-638
6880,22545,6693,10162,-16210,20077,-2343
6890,20865,9508,12662,-12147,14982,-4049
6900,22427,11650,11092,-7107,3591,-3983
6910,22877,10165,9913,-3278,-9296,-3666
6920,19650,10809,10323,-2488,-7969,-4433
6930,17382,13785,11457,-3922,-5593,-4408
6940,8091,7606,2410,-5912,-5078,-6495
6950,7873,7239,1523,-3855,-1186,-3664
6960,12114,4616,4976,-3676,718,-436
6970,16323,3255,7059,-1533,1281,884
6980,17751,3454,6856,4668,983,1796
6990,18354,3682,6850,7193,1692,2417
7000,18505,3808,6400,9328,2782,3316
7010,17132,2782,5247,12410,4538,5008
7020,16287,2118,4312,13472,4604,5533
7030,15714,1341,3701,13990,3960,5561
7040,14106,330,3049,13409,1904,4830
7050,13478,393,3054,12897,561,4433
7060,12915,696,3177,12449,-471,4236
7070,12270,2174,2682,11585,-1457,4114
7080,12158,3144,2782,10832,-1816,3902
7090,12022,3827,3177,9860,-1891,3729
7100,11588,4417,4087,8034,-1921,3144
7110,11387,4652,4612,7674,-1627,2978
7120,11294,5043,4751,7669,-1634,2776
7130,11343,5394,4631,7639,-1757,2515
7140,11364,5943,4423,7329,-1595,1891
7150,11676,6018,4496,7045,-1371,1593
7160,11934,6256,4331,6663,-1194,1163
7170,12322,6176,4703,5273,-993,193
7180,12698,5886,5210,4830,-825,-105
7190,12825,5642,5593,4818,-689,-325
7200,13211,5036,6388,5567,-689,-440
7210,13343,4723,6698,6285,-689,-392
7220,13474,4465,6934,7163,-557,-253
7230,14227,4120,7418,9033,-98,234
7240,14483,3928,7565,9963,21,546
7250,14457,3733,7417,10885,-41,790
7260,14993,3693,7405,12133,-59,1161
7270,15833,3884,7708,12471,124,1353
7280,16706,4153,8083,12686,334,1587
7290,17879,4445,8248,12523,-298,1685
7300,17827,4408,8459,11803,-1032,1452
7310,18134,4508,8220,10497,-2426,1031
7320,17993,4290,8121,8255,-4089,261
7330,18056,2648,10449,1939,-7616,-1593
7340,19644,1155,13998,-768,-7818,-1939
7350,20132,88,16939,-1835,-5774,-1971
7360,20723,1487,17613,-225,466,-958
7370,22850,3358,13445,-171,4125,-588
7380,22855,4650,10093,-1815,7366,-1060
7390,21370,4979,7148,-4200,8172,-2034
7400,15963,4818,3420,-8786,5235,-4208
7410,13753,4355,3189,-10860,3564,-4967
7420,12033,4120,3461,-12199,2362,-5367
7430,11525,4915,3808,-12590,344,-5071
7440,12007,5930,3920,-12322,-260,-4476
7450,13307,6925,4152,-12251,-857,-3732
7460,14853,7858,4251,-12627,-1552,-3152
7470,17538,9703,4033,-14713,-2548,-3022
7480,17833,10285,4082,-16281,-2844,-3621
7490,12457,7298,8273,-16638,-2738,-4996
7500,11718,6364,8306,-10178,-1283,-4250
7510,10955,5840,7712,-6681,-74,-3487
7520,10348,5420,7045,-3715,1490,-2558
7530,9347,4976,5878,435,3681,-804
7540,9484,5041,5188,1858,4084,-134
7550,9440,5221,4152,2751,4204,310
7560,10387,5309,3337,2252,3564,755
7570,10478,5469,2922,1393,3013,481
7580,10759,5086,3154,88,2473,116
7590,11354,4827,3594,-1260,1613,-346
7600,11811,4076,4824,-3498,340,-1161
7610,11968,3713,5234,-4394,-45,-1418
7620,11872,3323,5432,-5174,-458,-1562
7630,11951,3029,5268,-5569,-1037,-1702
7640,11675,3183,4544,-4951,-1348,-1824
7650,11541,3191,4225,-4335,-1223,-1588
7660,11581,3038,4273,-3738,-1291,-1208
7670,12051,2900,4352,-1860,-1552,-147
7680,12126,2851,4544,-919,-1600,438
7690,12190,2408,4979,-105,-1918,1026
7700,12554,1953,5652,920,-2401,1651
7710,14062,914,7042,4065,-3298,2411
7720,13988,950,7109,6133,-2928,2597
7730,14142,339,9449,9022,-2033,3430
7740,14593,-262,12311,10661,-1888,4037
7750,16306,-509,15608,12946,-2087,4528
7760,17831,-236,19354,15617,-3417,4329
7770,17459,2253,16591,20070,-6471,3632
7780,16754,3385,12974,15385,-9599,2534
7790,17868,4120,11871,5810,-13856,1102
7800,17244,3374,8855,-9800,-11549,-284
7810,19052,2365,6415,-12286,-5957,519
7820,20093,3242,4303,-13056,594,511
7830,20449,4590,2604,-14214,6998,162
7840,23003,6222,3840,-18078,17965,-983
7850,20224,6812,11881,-18410,18902,-2689
7860,20340,8692,12105,-15443,7064,-4301
7870,17760,8427,9165,-6743,-7933,-4964
7880,14293,8786,8463,-3309,-7163,-4875
7890,12666,9088,6926,-1440,-6802,-4314
7900,12454,9312,5760,-750,-4227,-2947
7910,13197,6447,4871,-901,828,-181
7920,14986,4678,4964,112,2052,1402
7930,17495,3763,5754,1497,2416,2400
7940,19819,3364,6147,5619,3045,3406
7950,19777,2956,6324,7594,3555,3970
7960,19734,2493,5902,9543,3916,4710
7970,17851,297,5348,13271,3370,5776
7980,16952,-634,4335,15061,2307,5957
7990,16411,-168,2214,16284,555,5608
8000,15116,1114,1736,15758,-1105,4717
8010,13083,1280,2156,11770,-2283,3885
8020,12244,2184,2398,10543,-2706,3719
8030,12015,2848,2646,9434,-3452,3574
8040,10895,4086,3108,7747,-4077,3215
8050,10652,4327,3632,7155,-4179,2985
8060,10722,4465,3931,6786,-3917,2889
8070,10205,4957,3782,6146,-3088,2235
8080,10265,5319,3806,5731,-2485,1997
8090,10295,5638,3638,5224,-2062,1583
8100,10118,5957,3651,4585,-1732,1072
8110,10378,6401,3973,3423,-1344,80
8120,10669,6313,4502,3096,-1187,-306
8130,11313,6142,5088,3103,-994,-462
8140,12325,5587,6207,4331,-687,-518
8150,12730,5115,6643,5343,-410,-338
8160,13043,4678,6966,6541,-152,-208
8170,13745,3971,7451,9157,690,291
8180,14239,3646,7831,10555,1203,730
8190,14536,3334,7851,12027,1600,1258
8200,15274,2970,7694,14739,1896,2274
8210,15761,2924,7928,15724,1840,2681
8220,16455,2977,8012,16490,1452,3062
8230,17894,3393,7302,16010,-203,2874
8240,17842,3610,7029,14390,-1343,2141
8250,18567,3570,7040,11796,-3155,1341
8260,19356,2522,8528,4052,-7287,-922
8270,19219,1316,9961,182,-8044,-2049
8280,19000,261,12067,-2577,-7549,-3049
8290,18680,219,14558,-3980,-6026,-3446
8300,19948,2951,17719,-2020,412,-1698
8310,22927,4213,14501,-375,3203,-912
8320,24082,4695,10960,-597,5950,-1179
8330,21205,4623,7549,-3716,8929,-2675
8340,18491,4408,5958,-4939,8090,-3371
8350,16176,4315,4626,-6252,6192,-4134
8360,14679,4458,3434,-7805,4215,-4799
8370,12855,5369,2114,-11760,1605,-5496
8380,13096,5976,2007,-13917,580,-5355
8390,14305,6893,2265,-16067,-313,-5326
8400,16350,9187,2978,-19765,-2498,-5931
8410,17468,10384,4387,-21395,-4660,-6472
8420,17073,10391,4772,-23188,-5269,-6871
8430,12392,6774,8470,-15896,-3275,-5319
8440,11194,5976,8232,-11878,-1636,-4191
8450,9592,4793,7938,-4616,1669,-2250
8460,9037,4652,7089,-1337,2652,-1396
8470,9103,4782,5929,1360,3181,-647
8480,9115,4777,3928,3710,3898,-176
8490,8704,4835,3105,3632,4353,-303
8500,8682,4846,2727,2934,4410,-445
8510,8905,4837,2810,1728,4012,-636
8520,9653,4645,2662,-1013,2583,-1248
8530,10396,4481,2975,-2379,2074,-1530
8540,11203,4283,3598,-3888,1646,-1729
8550,12497,3167,5700,-7469,-1517,-1583
8560,13149,2510,5533,-7714,-3983,-1668
8570,13582,1950,4694,-6719,-4242,-2152
8580,11091,2920,4325,-5313,-1059,-3225
8590,11704,4765,4137,-3710,-967,-2341
8600,13265,3790,4675,-3395,-2707,-1525
8610,12908,3418,4789,-2355,-2635,-1058
8620,12719,2390,5532,-527,-2706,427
8630,13197,1662,6413,400,-2914,1239
8640,14001,792,7456,1697,-3337,1677
8650,14827,450,7990,3493,-3319,1836
8660,15127,4,9570,6884,-2329,2230
8670,16570,-289,10692,8119,-2464,2480
8680,17411,-1800,21611,11658,-3948,2604
8690,18758,-3903,27949,17141,-5819,2992
8700,17945,-590,21702,22690,-7686,2350
8710,19781,4050,9156,18187,-11754,225
8720,15393,2592,8707,-11262,-8571,-971
8730,14765,1193,7066,-15643,-6255,-687
8740,15710,1570,5882,-15403,-2662,32
8750,20717,3118,6098,-14065,6741,652
8760,22788,4466,5752,-14287,10649,435
8770,23389,5744,7719,-14874,13431,-61
8780,23548,8443,10195,-12313,2463,-1301
8790,25196,8281,9760,-9815,-5036,-1599
8800,21489,8212,8327,-6813,-6859,-2384
8810,17362,8319,7160,-4233,-5811,-2791
8820,13122,8567,6084,-625,-4224,-2614
8830,11438,8829,4439,1181,-2569,-1928
8840,11491,8118,3315,2103,-601,-669
8850,13940,5798,3475,2589,2462,1134
8860,15242,5431,3459,3133,2778,1427
8870,16519,5171,3773,3794,2976,1720
8880,17766,4303,5312,4550,3437,2123
8890,17760,3469,5720,7182,4130,3156
8900,17574,2750,5604,9094,3925,3724
8910,15929,1884,4281,11992,2100,3928
8920,14751,1086,4568,12657,745,3886
8930,13860,111,5253,13520,-46,4188
8940,13056,-990,5552,16019,-605,5135
8950,12544,-693,4781,17079,-628,5291
8960,12026,349,3574,17297,-778,5213
8970,11722,701,3389,16454,-1273,4877
8980,10594,991,4115,15173,-953,4976
8990,10377,1462,3827,14859,-966,4993
9000,10241,2091,3487,14280,-834,4829
9010,10599,3390,3320,12073,-723,3872
9020,10670,3914,3459,10643,-633,3246
9030,11299,4329,3623,9234,-605,2739
9040,11769,4955,3562,7992,-670,2107
9050,12460,5906,3808,5157,-1195,709
9060,13184,5969,4272,3795,-1548,168
9070,13742,5844,4893,2730,-1803,-307
9080,14204,5387,5858,1848,-2120,-1099
9090,14340,4915,6397,1940,-2150,-1251
9100,14585,4514,6885,2441,-2149,-1260
9110,14961,3735,7666,4473,-2226,-955
9120,14950,3384,7825,5747,-2169,-718
9130,14841,3112,7803,7029,-1948,-450
9140,15353,2923,7900,9361,-1390,389
9150,16004,3088,8057,10229,-1344,745
9160,16805,3425,8097,10820,-1580,929
9170,18163,4052,7954,9829,-2933,525
9180,18613,3974,8264,7997,-3944,-94
9190,18582,3669,8494,5720,-4883,-921
9200,18259,2474,10061,787,-6858,-2118
9210,19579,1235,11958,-1225,-7047,-2102
9220,19998,189,14140,-2114,-5616,-2019
9230,21036,1516,15997,-1795,-847,-832
9240,23238,2788,13829,-9,2540,127
9250,24357,3405,11685,-222,6230,394
9260,22886,3789,9806,-957,8923,4
9270,18393,4570,6610,-2488,8425,-1357
9280,16160,4601,5743,-3487,6966,-1833
9290,14406,4618,4158,-4506,5392,-2282
9300,12651,5300,2266,-7473,3212,-2487
9310,12880,6019,1736,-9500,2793,-2401
9320,13727,7140,1270,-11870,2167,-2625
9330,15220,8594,727,-14779,1070,-3073
9340,17500,10706,1633,-21956,-2340,-5247
9350,17401,10820,2950,-24949,-3828,-6365
9360,17216,10508,4976,-26656,-5173,-6931
9370,15463,9301,6717,-25056,-5373,-6913
9380,10385,5305,8239,-10827,391,-3766
9390,8840,4537,7374,-6651,2298,-2677
9400,8514,4715,6151,271,3406,-669
9410,8628,5001,4956,2373,3213,-85
9420,9012,5178,3733,3354,2986,242
9430,8851,5297,2398,2847,3008,-193
9440,8571,5335,1991,1578,2881,-535
9450,8722,5099,2459,-31,2470,-822
9460,9340,4850,2781,-2815,1239,-1576
9470,10107,4589,3166,-3832,616,-1811
9480,10588,4318,3507,-4456,101,-1947
9490,11034,4043,3789,-4780,-420,-2094
9500,11432,3217,4307,-4872,-1001,-1863
9510,11900,2937,4760,-4536,-1010,-1447
9520,12281,2654,4872,-3874,-1031,-924
9530,12609,2400,5036,-2940,-920,-257
9540,13115,1631,5780,-742,-953,1263
9550,14283,1008,6461,668,-1421,1793
9560,14883,596,6751,2605,-1225,2098
9570,14942,-319,7547,6177,-411,2706
9580,15462,-1091,8097,7652,-865,3176
9590,16212,-1986,9585,8864,-1041,3829
9600,17218,-2303,9616,9933,-1003,4134
9610,18347,-3211,15783,11071,-2478,3964
9620,17628,-5234,24567,13588,-5261,3751
9630,16420,106,18823,26364,-10937,2912
9640,15655,5350,14590,20859,-11441,2642
9650,18727,8393,14705,8257,-10806,2138
9660,16663,9140,13034,-1367,-7006,1422
9670,23172,6133,3484,-8940,-4970,462
9680,24793,6157,-135,-12992,1268,-652
9690,26021,6072,-2572,-18432,10114,-1550
9700,21867,4919,7837,-29433,25233,-3885
9710,20811,4579,14161,-30456,13472,-6354
9720,23623,5182,13016,-25380,-4658,-7871
9730,14312,5980,8106,-12425,-7896,-6772
9740,12052,5622,6621,-8692,-7061,-5154
9750,11308,4598,6192,-5770,-5924,-3404
9760,12259,4395,3990,-2763,-4034,-1532
9770,12956,4142,4511,1593,871,913
9780,14276,3865,4663,3213,1687,1663
9790,15539,3983,4304,5056,2298,2225
9800,17124,4547,2862,7569,3203,2560
9810,17109,4419,2199,7851,3253,2354
9820,16730,3848,2031,7659,2974,2077
9830,15545,898,4094,7455,2409,1974
9840,14999,-310,4692,9327,609,2295
9850,14405,-931,4669,10978,-203,2667
9860,13285,-915,4266,14037,-1236,3401
9870,13422,60,3513,15091,-1305,3846
9880,12786,817,3177,15325,-1225,3994
9890,12191,1795,4251,15144,-604,4759
9900,11805,2069,4399,15166,-714,4924
9910,11162,2531,4406,15276,-714,4891
9920,10881,2976,4369,15300,-672,4925
9930,10739,3864,4012,14838,-613,4655
9940,10603,4238,3815,14250,-483,4328
9950,10931,4695,3628,13488,-427,3929
9960,11563,5469,3364,11208,-621,2722
9970,12593,5550,3852,9783,-728,2234
9980,13262,5584,4327,8582,-786,1636
9990,14083,5446,4963,7612,-895,1192
10000,14924,4734,6230,6646,-1079,596
10010,15059,4235,6761,6700,-1151,487
10020,15012,3714,7205,7211,-1125,484
10030,14714,3001,7511,9212,-986,808
10040,14443,2749,7565,10409,-965,1130
10050,14061,2696,7309,11707,-1112,1424
10060,14158,2747,7185,12849,-1269,1814
10070,14849,3300,6403,13979,-2068,2209
10080,15722,3665,6219,13333,-2839,1957
10090,17778,4517,6155,8526,-5230,567
10100,18882,4184,7094,4467,-6754,-651
10110,18885,3549,8143,471,-7688,-2126
10120,17956,2844,10030,-2745,-8089,-3121
10130,17750,809,12502,-6293,-9648,-3968
10140,17628,88,13837,-6642,-8377,-3619
10150,17685,380,15826,-5930,-5999,-2507
10160,20294,4109,16389,-1219,-266,498
10170,22372,5090,13329,622,2081,1117
10180,23190,4859,10882,215,5283,988
10190,22620,3855,9761,-1273,8508,403
10200,18420,2857,8082,-2262,10519,-978
10210,16895,3072,6848,-1794,9512,-1451
10220,15592,3378,5796,-1489,7802,-1898
10230,13751,4853,3134,-2697,4342,-2192
10240,13644,5514,2472,-4579,3531,-2066
10250,14383,6240,1739,-7077,2764,-2061
10260,15393,6947,1472,-10167,2059,-2374
10270,16974,8981,220,-17742,-52,-4361
10280,17535,9569,287,-22402,-1803,-5834
10290,17646,9145,1912,-26816,-3239,-7139
10300,16547,8538,4159,-30616,-5875,-9104
10310,11438,5310,7248,-24109,-3054,-8192
10320,8799,4222,8091,-15937,-10,-6345
10330,7682,4013,8107,-11216,1067,-5174
10340,7440,3911,7410,-6585,1381,-3812
10350,7893,4330,5427,491,2087,-1729
10360,8168,4573,4277,2513,2359,-1194
10370,8640,4778,3214,3592,2609,-860
10380,9559,5173,2374,3555,3189,-589
10390,10166,5229,2204,2632,3034,-570
10400,11002,5017,2531,1382,2842,-612
10410,11872,4645,3179,351,2580,-727
10420,13149,3930,3227,-1158,1629,-911
10430,13312,2415,4660,-2653,1333,-697
10440,12954,1729,5654,-2877,1318,-646
10450,14037,1382,5931,493,-48,407
10460,14493,1195,6034,2154,-730,850
10470,14858,1073,5939,3741,-1243,1370
10480,15255,952,6159,5305,-1626,1826
10490,15271,184,5845,8109,-1905,2412
10500,14769,-329,6368,9210,-1834,2725
10510,14913,-1027,6955,10111,-2050,3155
10520,15043,-2395,9597,11922,-2337,4220
10530,15400,-3549,12365,13269,-2766,4762
10540,16662,-3040,23003,17971,-5644,4863
10550,17537,-3337,32764,23769,-8892,5027
10560,18630,2300,26954,31340,-12591,3751
10570,16905,11057,10489,27785,-10963,1820
10580,13529,4349,9959,-7749,-3496,836
10590,14886,3277,6379,-12625,-6334,172
10600,18496,3406,3793,-13583,-5104,-179
10610,23903,4025,771,-17032,10339,-436
10620,25160,4816,-1030,-20878,19405,-1175
10630,22636,3318,7689,-25760,24967,-1953
10640,23288,3458,13468,-27038,13767,-4297
10650,21546,5894,9158,-18373,-7748,-7033
10660,16724,6228,7482,-14402,-7713,-6761
10670,14077,6241,5925,-11828,-7666,-6003
10680,12411,6274,4488,-8193,-5147,-3862
10690,12682,6028,4550,-6308,-2799,-2623
10700,13233,5656,5108,-4150,-541,-1331
10710,14996,5841,5090,-1581,765,-216
10720,17692,6855,3501,2512,2184,694
10730,18269,6781,3177,3358,2684,794
10740,18062,6201,3139,3930,2810,776
10750,16438,3729,4859,6088,3067,1214
10760,15542,2203,5345,8370,2546,1625
10770,14796,1263,4874,11077,1484,2060
10780,13311,191,4309,14663,-77,2732
10790,12504,-566,4667,15547,-487,3090
10800,12245,-1067,5101,16583,-685,3619
10810,11819,-785,4385,17882,-896,3989
10820,11160,593,3022,18228,-1519,4006
10830,10417,939,3352,17701,-1138,4061
10840,10070,1090,3477,17394,-762,4343
10850,10374,2143,3004,16602,-2,4720
10860,10562,2744,2718,15485,106,4332
10870,10959,3430,2158,13850,-59,3794
10880,11525,4504,1639,9359,-846,2210
10890,12221,4761,1860,6778,-1411,1302
10900,12929,5006,2468,4370,-1897,420
10910,13035,5084,3612,2347,-2169,-432
10920,14407,4066,6360,970,-2542,-921
10930,14510,3743,6976,1866,-2633,-979
10940,14532,3429,7291,3235,-2616,-773
10950,14414,2884,7650,6582,-2341,61
10960,14637,2632,7729,8273,-2261,554
10970,14763,2578,7662,9854,-2067,978
10980,15097,2624,7616,11204,-1865,1367
10990,16213,2935,7771,13249,-1099,2154
11000,16985,3171,7807,13998,-618,2575
11010,18310,3840,7610,14247,-311,3009
11020,19253,4089,7149,13290,-1288,2836
11030,19773,4142,7096,11144,-2596,2209
11040,19662,3555,8416,7919,-4180,-213
11050,19868,3039,9458,593,-8197,-1302
11060,21116,2166,11124,-2483,-9257,-1914
11070,20977,769,14538,-4415,-8886,-2280
11080,20825,816,18569,-2539,-2853,-591
11090,23587,1876,16824,-499,887,952
11100,24741,2760,13422,530,5474,1559
11110,22721,3152,7960,400,9327,1190
11120,17769,3686,6293,-1190,10068,-318
11130,15734,3826,5060,-2209,8884,-924
11140,13737,4136,3696,-3176,7498,-1392
11150,11442,4690,1498,-6354,4048,-2080
11160,11518,5456,317,-8532,2948,-2152
11170,12872,6625,-186,-11451,2268,-2391
11180,14359,9357,-916,-19164,-534,-4594
11190,15625,10075,92,-23259,-2570,-5679
11200,16729,10836,1547,-26473,-4088,-6651
11210,17295,11196,2950,-28545,-5557,-7548
11220,16070,10695,6085,-28890,-7295,-8573
11230,9168,4893,8320,-7539,776,-3807
11240,8402,4539,7570,-3270,1991,-2562
11250,8398,4303,6701,261,2725,-1326
11260,9427,4374,4994,4303,3152,299
11270,9846,4611,4308,5307,3303,704
11280,10100,4555,3901,5647,3669,1009
11290,10802,4281,3198,4545,3861,805
11300,11318,3944,3290,3349,4078,505
11310,11302,4062,3568,2123,4070,130
11320,11666,3727,4081,1022,3658,-25
11330,12687,3075,4129,-428,2685,-372
11340,12708,2870,4050,-967,2056,-559
11350,12763,2336,4246,-1484,1289,-505
11360,12714,695,5415,-1443,-22,76
11370,12915,371,5768,-212,-800,375
11380,13044,306,5921,1349,-1535,763
11390,13937,146,6339,4285,-2447,1858
11400,14577,-47,6731,5786,-2659,2480
11410,15034,-101,6636,7385,-2584,2975
11420,15068,-58,6716,8774,-2412,3194
11430,15162,190,7023,10798,-2052,3916
11440,15479,578,7543,11581,-1878,4324
11450,16194,1409,8593,12360,-1806,4612
11460,16756,2787,12144,13381,-1868,4743
11470,15773,1767,18556,17469,-3500,4934
11480,15884,-570,29188,22092,-6758,5152
11490,19378,9108,13471,29572,-8118,2535
11500,14447,11301,10009,13804,1842,670
11510,11253,7418,9722,-3698,2473,-226
11520,17966,3658,7080,-14127,-9552,-968
11530,21338,3621,4957,-14386,-5063,-749
11540,22219,4544,2455,-15772,3550,-717
11550,23897,5476,-666,-18673,12327,-1124
11560,21159,5666,6631,-26379,21579,-4030
11570,24109,5872,9994,-27402,7454,-6559
11580,25489,5724,9616,-24989,-6303,-8370
11590,15075,5851,7075,-16876,-7955,-8140
11600,13171,5867,5769,-14006,-8184,-7213
11610,11661,5609,4981,-11600,-7162,-6017
11620,12353,4658,5201,-9220,-5228,-4326
11630,13426,4940,5026,-3469,-1016,-1524
11640,14641,5292,4423,-878,214,-648
11650,15951,5828,3752,1135,1228,-19
11660,16551,5356,3335,3431,2529,544
11670,16825,4525,3724,4467,2964,1053
11680,16494,3666,4035,5980,3154,1455
11690,15885,2311,4053,9429,2600,2128
11700,15256,1902,3659,10985,1938,2303
11710,14836,1680,3299,12067,1184,2398
11720,13929,1277,3905,12694,170,2487
11730,13488,1693,3921,12937,-29,2513
11740,13150,1993,4125,13024,-302,2486
11750,12383,2310,4292,13252,-898,2483
11760,11833,2357,4414,13369,-1077,2472
11770,11507,2201,4671,13478,-997,2667
11780,11365,2097,4817,13721,-939,2878
11790,11411,2258,4590,14123,-767,3068
11800,11520,2510,4316,13956,-704,3005
11810,11687,2864,4023,13382,-681,2817
11820,12382,3206,3921,11308,-840,2195
11830,12680,3564,3997,10136,-830,1794
11840,12757,3824,4195,8849,-860,1365
11850,12970,3721,4719,7610,-1098,1040
11860,13531,3382,5787,6511,-1583,598
11870,13671,3284,6056,6499,-1933,465
11880,13810,3098,6311,6715,-2302,397
11890,14277,2805,6788,7373,-2653,441
11900,14599,2836,7064,7893,-2442,678
11910,14723,2977,7043,8542,-2364,842
11920,14957,3153,6951,9037,-2360,979
11930,15487,3484,6928,9379,-2311,1154
11940,16250,3702,6871,9048,-2577,1150
11950,17892,4217,6764,8243,-3082,951
11960,18899,4299,6958,4356,-4296,-222
11970,19305,4012,7490,1471,-4744,-1047
11980,19565,3838,7721,-1335,-5073,-2016
11990,19862,2971,9792,-7199,-5970,-3547
12000,20541,1869,11879,-9218,-6532,-3880
12010,20577,1214,13640,-9384,-6447,-3819
12020,21667,1137,15999,-5642,-3947,-1725
12030,22796,1683,16077,-2928,-1378,-253
12040,24392,2521,13734,-781,1609,715
12050,24529,2983,11376,-390,4647,639
12060,18979,3779,7746,-1090,7720,-649
12070,16700,4264,5557,-1228,7297,-1045
12080,14410,4633,3888,-2169,6654,-1447
12090,11157,4983,1139,-5859,4057,-2320
12100,10482,5208,386,-8346,2896,-2533
12110,11174,5691,279,-11082,1697,-2622
12120,11803,7462,436,-13784,851,-3009
12130,13437,8331,1584,-19074,-1111,-4303
12140,14511,9373,2245,-20893,-2375,-4901
12150,15054,9825,3374,-22319,-3279,-5309
12160,13349,6856,7692,-14673,-1085,-4236
12170,11893,5814,7294,-11367,462,-3769
12180,10942,4683,6876,-5431,2623,-2477
12190,10639,4323,6467,-2863,3456,-1853
12200,10698,4302,5719,-739,3953,-1290
12210,10831,4356,4763,839,4174,-799
12220,11221,4412,4265,2570,4098,-305
12230,11178,4405,3748,2804,3966,-283
12240,11284,4525,3301,2591,3794,-301
12250,11421,4334,3125,1046,2991,-593
12260,11954,4036,3557,217,2372,-706
12270,12121,3595,3946,-218,1747,-871
12280,12672,3136,4005,-317,555,-1130
12290,12743,2773,4149,-400,23,-1180
12300,12763,2364,4418,-317,-610,-1182
12310,12928,1955,4694,-88,-1052,-990
12320,13677,1098,5361,1173,-1806,-475
12330,13637,1024,5572,2168,-1956,-263
12340,13657,820,5684,3134,-2027,15
12350,13560,483,6208,5421,-2056,789
12360,13579,271,6455,6692,-2011,1325
12370,13602,2,7025,7926,-1830,2039
12380,14036,-193,7492,9278,-1760,2725
12390,14389,143,8718,11888,-1443,3691
12400,14325,277,10592,13069,-1440,4235
12410,15726,-1538,21140,18475,-2716,5265
12420,18415,-1134,19061,22624,-5333,4654
12430,17937,1247,12463,21447,-7762,2881
12440,16663,2521,8079,11914,-9882,1417
12450,16920,714,11265,-10208,-13018,-340
12460,16064,922,11092,-13165,-11327,-751
12470,16424,1715,9719,-13309,-7545,-53
12480,20031,5532,2819,-12771,3069,752
12490,22748,6863,-460,-14707,10100,963
12500,23851,7919,-323,-18163,17568,425
12510,20913,7179,11246,-21458,19339,-970
12520,25642,8640,9498,-17063,-6531,-4779
12530,19131,9224,8549,-12590,-7258,-5352
12540,15645,9513,8208,-8864,-7380,-4987
12550,12757,10314,5686,-3512,-6312,-3501
12560,12245,10659,3992,-1542,-3498,-2322
12570,12385,9965,3684,-505,-196,-935
12580,15190,6064,5131,1621,2339,1100
12590,16926,5583,4972,4026,2736,1780
12600,18622,5021,5198,6084,3274,2332
12610,19442,4598,5573,7987,4019,2645
12620,18409,3852,5036,11760,4568,3394
12630,17755,2933,4743,13158,3996,3736
12640,15644,1276,4106,14917,1684,3766
12650,14714,526,4008,15265,431,3790
12660,13888,238,3827,15372,-614,3678
12670,12748,458,3819,15082,-1872,3487
12680,12601,489,4264,13546,-1976,3527
12690,12080,1251,3628,13052,-1925,3455
12700,11704,2159,2288,12136,-1953,3169
12710,11131,3742,1814,8236,-1558,2386
12720,10763,4000,2467,6064,-1498,1852
12730,10570,3842,3416,4445,-1676,1478
12740,10507,3762,4128,3648,-1922,1242
12750,11006,4252,4631,3541,-2206,925
12760,11287,4547,4785,3652,-2178,808
12770,11762,4739,4903,3734,-2106,745
12780,12703,4894,5089,3712,-1724,472
12790,13161,4819,5291,3739,-1550,270
12800,13457,4686,5524,3827,-1388,61
12810,13530,3935,6166,4013,-1258,-89
12820,13494,3592,6364,4978,-1082,-109
12830,13618,3354,6520,5748,-949,6
12840,13801,3030,6699,6609,-745,232
12850,14524,2413,6931,8557,-338,890
12860,14846,2247,6926,9548,-221,1193
12870,15358,2408,6751,10940,-294,1636
12880,15909,2461,6876,11080,-588,1818
12890,16824,2578,7107,11022,-1085,1879
12900,17583,2761,7108,10630,-1523,1773
12910,18409,2498,7393,7827,-3156,957
12920,19025,2201,7580,5773,-4063,357
12930,19311,2049,7666,3442,-4803,-445
12940,19160,2313,9567,-921,-4707,-1599
12950,19759,2551,11145,-1949,-4121,-1419
12960,20523,2821,12346,-1792,-3187,-873
12970,22606,3812,13372,-839,-1833,-124
12980,24563,4626,11068,1217,2095,824
12990,25175,4602,9678,-16,4706,383
13000,23350,4306,8817,-1790,6937,-419
13010,18450,4658,4920,-3900,6911,-2292
13020,15893,5025,3317,-5671,6079,-3135
13030,13740,5280,1731,-8103,4559,-3970
13040,11534,5485,259,-11057,1004,-5200
13050,12180,6368,161,-16795,-627,-5528
13060,12458,7556,-93,-19578,-1992,-6147
13070,12660,8489,566,-22337,-3258,-6761
13080,14811,9961,8491,-21337,-6060,-5188
13090,14269,7565,8763,-13932,-2614,-3353
13100,12957,5999,8715,-10397,-362,-2847
13110,12114,4755,9026,-6855,1532,-2269
13120,11916,4101,8669,-3441,2673,-1637
13130,11541,3883,7041,1637,4552,-659
13140,11553,3992,5892,3001,4915,-433
13150,11286,4084,5477,3625,5232,-313
13160,10567,4054,4136,3404,5374,-492
13170,10756,4156,3257,2404,4879,-807
13180,10900,4162,2471,728,4530,-1232
13190,10853,3856,2152,-1586,4033,-1775
13200,11008,3295,3093,-6145,2497,-2757
13210,11233,3178,3541,-7617,1576,-3077
13220,11212,3290,4232,-8525,611,-3239
13230,11471,3348,4334,-8446,-1384,-2960
13240,11721,3226,3904,-7797,-1754,-2510
13250,11891,2925,4012,-7253,-2015,-2051
13260,12413,1989,4775,-6544,-2050,-1430
13270,12767,1613,5324,-4239,-2009,-174
13280,12949,1191,6066,-2448,-2141,311
13290,13469,742,6406,-243,-2535,702
13300,14149,575,6212,4579,-1977,1632
13310,14364,567,6149,6577,-1425,2116
13320,15645,401,6649,9696,-601,3523
13330,16221,377,7024,11151,-350,4089
13340,16815,519,7237,12525,-272,4544
13350,17376,609,7497,13645,-646,4807
13360,16617,-1655,17774,16009,-3418,4961
13370,14997,-7742,32764,21282,-8309,4672
13380,18957,-2177,31372,30909,-13628,3915
13390,15932,12917,11845,14706,-1806,1359
13400,14355,9486,9497,459,-3122,992
13410,15794,6626,6415,-6047,-9540,431
13420,22954,5006,1745,-12288,-6481,199
13430,23432,5941,-946,-15861,3446,-262
13440,24021,6500,-3391,-20488,13685,-960
13450,25090,6673,-2583,-25619,23065,-2081
13460,20957,4799,13202,-29974,13751,-6139
13470,22985,5090,12039,-25054,-5417,-8365
13480,17299,5940,9165,-17901,-9867,-8493
13490,10525,6002,6065,-9113,-8038,-5634
13500,10508,4936,4995,-6732,-6762,-3958
13510,11328,3924,4977,-4205,-3901,-2252
13520,12482,3150,5365,-1367,-890,-845
13530,15680,3399,4986,4051,1785,1044
13540,17148,3668,4547,6047,2567,1695
13550,18125,3928,3496,8598,3776,2545
13560,17907,3236,3612,9145,4014,2852
13570,17535,2526,3803,9697,3903,3051
13580,16546,2319,3136,10325,2553,2875
13590,15971,2434,2885,10463,1283,2556
13600,15416,2458,2939,9736,285,2255
13610,14599,2717,2871,8893,-579,1849
13620,13677,2778,3477,7296,-1057,1532
13630,13269,2885,3663,6783,-1068,1442
13640,12709,3008,3741,6417,-1270,1302
13650,12091,3176,4152,6199,-1385,1222
13660,11787,3193,4420,6371,-1459,1288
13670,11629,3197,4744,6772,-1315,1437
13680,11672,3294,4920,7430,-1205,1622
13690,11629,3333,5243,9041,-912,1951
13700,11739,3299,5188,9872,-713,2127
13710,12019,3383,5015,10535,-472,2258
13720,12303,3619,4687,10861,-318,2233
13730,13291,3998,4377,10195,-358,1834
13740,13561,4053,4332,9427,-564,1444
13750,13772,3871,4544,8495,-751,1074
13760,13305,3267,5145,6897,-1028,502
13770,13025,2888,5473,6517,-1204,319
13780,12908,2587,5652,6501,-1420,252
13790,13672,2017,6275,7083,-1750,502
13800,14139,1982,6488,7593,-1748,780
13810,14646,1965,6641,8099,-1795,1057
13820,15218,2318,6365,8552,-2001,1355
13830,15584,2354,6733,8224,-2352,1434
13840,16209,2500,7010,7500,-3308,1422
13850,17751,2642,8394,4661,-6610,563
13860,18118,3195,8932,2994,-8333,-259
13870,17943,3806,10288,1394,-9481,-896
13880,17479,4148,12327,442,-9212,-999
13890,16287,4117,14452,1066,-5068,-746
13900,16381,3923,15132,1420,-3047,-775
13910,17234,3900,15671,1436,-727,-796
13920,20221,4530,13358,1152,2500,-638
13930,23876,5128,9246,-1765,7702,-1287
13940,24839,4697,7950,-3955,8672,-1648
13950,25168,4072,7075,-6034,9105,-2231
13960,19999,2784,3942,-9903,8279,-3775
13970,18573,3052,2237,-11656,6295,-4400
13980,16166,4374,-588,-13667,4301,-5860
13990,11719,1093,3905,-18802,2302,-5488
14000,14195,4201,5160,-12866,-1321,-2565
14010,15429,4720,6666,-10726,-1115,-1655
14020,17244,5006,6729,-5914,-280,421
14030,17756,5005,6997,-3677,693,1400
14040,17864,5111,6850,-1394,1830,2259
14050,16418,4897,5298,2497,3697,3121
14060,14757,3695,4093,4742,4788,3735
14070,13863,3214,3794,5302,4850,3849
14080,13296,2833,3580,5760,4460,3932
14090,12631,2473,3674,6176,4018,4027
14100,12269,2287,3621,6860,2707,4134
14110,12278,2050,4039,6979,2198,4172
14120,12634,1975,4215,7055,1674,4139
14130,12891,1848,5053,7061,1452,4065
14140,13231,1549,5303,7038,1333,4081
14150,13530,1427,5607,6983,1439,4117
14160,14019,1614,5168,6627,1667,4023
14170,14319,1553,5100,6167,1747,3949
14180,14316,1588,4790,5801,1736,3806
14190,14453,1647,4573,5645,1527,3696
14200,14610,1647,4924,5868,904,3614
14210,14747,1708,5063,6549,526,3685
14220,15036,1752,5139,7500,234,3911
14230,15319,1888,4893,9652,-189,4433
14240,15333,1893,4896,10612,-288,4734
14250,15332,1877,4912,11584,-378,5014
14260,14999,1652,5411,13466,-411,5612
14270,14783,1566,5759,14459,-346,5899
14280,14676,1345,6329,15377,-209,6189
14290,14617,950,8014,16951,57,6618
14300,14470,617,8864,17632,140,6774
14310,14579,470,8798,18237,138,6915
14320,14653,647,8265,18220,381,6917
14330,14690,2509,7603,15729,436,6216
14340,14044,4069,8419,14826,-14,6025
14350,14119,4761,8368,15307,-10,6243
14360,14384,6000,7868,16019,-405,5637
14370,14438,6046,7930,16139,-699,5312
14380,14600,5921,7880,16424,-633,5034
14390,15680,5332,8033,16592,-241,4961
14400,19304,4885,1432,14058,652,4210
14410,19880,4849,-1055,9331,3048,3576
14420,19343,4207,502,4109,5909,2716
14430,18846,3343,4962,-167,2391,935
14440,18244,2997,5684,986,-42,601
14450,17316,2857,5642,3122,-1580,392
14460,16583,2774,5197,5480,-2324,611
14470,16282,3026,3788,9268,-2210,1400
14480,16171,3180,3624,10328,-1672,1626
14490,15962,2705,4175,12333,-714,2204
14500,16216,2476,4462,13697,-132,2667
14510,16887,2513,4391,15179,461,3128
14520,17693,2241,4196,16488,1171,3624
14530,18175,2043,3870,18513,2301,4553
14540,18138,1931,3496,19100,2520,4888
14550,17851,1685,3332,19302,2510,5040
14560,16997,1301,3035,19013,1999,4931
14570,16824,1186,3222,18609,1661,4793
14580,16737,1175,3218,18165,1329,4624
14590,16546,1033,3642,16996,1062,4365
14600,16281,934,3829,16513,1120,4235
14610,16036,826,4056,16172,1140,4150
14620,15607,777,4095,15997,1159,4102
14630,15193,771,4312,16099,1197,4086
14640,15033,561,4344,16320,1238,4228
14650,14900,547,4395,16663,1546,4325
14660,15197,495,4378,17306,2066,4634
14670,15248,436,4476,17508,2336,4694
14680,15455,439,4584,17748,2601,4755
14690,16069,406,4787,17980,2828,4853
14700,16387,393,4787,18400,3165,4962
14710,16440,341,4755,18482,3249,4945
14720,16606,567,4490,18395,3269,4785
14730,16733,675,4471,18116,3183,4636
14740,16897,826,4544,17687,2953,4389
14750,17075,1035,4625,17203,2757,4101
14760,17314,1432,4887,16206,2626,3537
14770,17319,1661,4958,15742,2623,3262
14780,17208,1895,4940,15295,2620,2975
14790,16943,2290,4874,14368,2669,2386
14800,16857,2363,4883,13858,2740,2095
14810,16724,2419,4900,13379,2835,1857
14820,16572,2478,4897,12907,2953,1628
14830,16401,2458,4858,12011,3196,1198
14840,16238,2486,4786,11579,3329,1036
14850,16035,2488,4746,11169,3413,866
14860,15695,2405,4694,10442,3534,586
14870,15554,2384,4596,10128,3587,473
14880,15557,2419,4465,9782,3610,336
14890,15638,2543,4283,9337,3601,188
14900,15827,2572,4209,8163,3479,-133
14910,15828,2577,4121,7495,3373,-292
14920,15823,2613,4048,6809,3257,-402
14930,16298,2720,4124,5424,3148,-479
14940,16683,2773,4226,4785,3105,-395
14950,17205,2947,4433,2705,2619,156
14960,17079,2871,4951,2131,2490,480
14970,16980,2828,5202,2170,2414,686
14980,16808,2860,5318,2439,2323,905
14990,15998,3038,5135,2788,2241,1128
15000,15485,3061,4957,3552,2093,1569
15010,15021,3071,4825,3913,2122,1815
15020,14733,3164,4775,4320,2223,2051
15030,14970,3427,4979,5215,2474,2626
15040,15370,3653,5122,5826,2518,2938
15050,15824,4009,5164,6448,2452,3239
15060,16661,4752,5519,6960,2319,3495
15070,17043,5019,5782,7550,2132,3771
15080,17005,5300,6554,7859,2011,3774
15090,16541,5609,7581,8511,1942,3722
15100,14966,5544,9265,11211,2506,4284
15110,14179,4980,9093,12877,2956,4792
15120,13481,4393,8016,14162,3399,5153
15130,12935,4223,6895,14576,3837,5319
15140,12131,4747,5163,13679,4043,5193
15150,12013,4915,4849,12669,3952,4961
15160,11932,5126,4736,11349,3666,4518
15170,11911,5179,5069,9923,3314,4005
15180,12064,5224,5155,7539,2691,3013
15190,12222,5267,5029,6484,2378,2508
15200,12525,5577,4630,4117,1709,1544
15210,12694,5619,4797,2646,1406,1040
15220,12978,5699,4489,1190,1099,490
15230,13003,6364,3672,-1518,870,-622
15240,12842,6734,3267,-2416,936,-1021
15250,13132,6854,3655,-3159,688,-1252
15260,13295,6927,4109,-3454,99,-1443
15270,13380,6878,5106,-1883,-903,-1287
15280,13427,6755,5197,-320,-1021,-907
15290,13178,6607,4979,1409,-978,-482
15300,13179,6034,4593,4573,-753,508
15310,13004,5810,4363,5901,-512,850
15320,13190,5474,4419,6979,-433,1216
15330,13493,4556,4994,7960,-512,1512
15340,13795,4345,5381,9902,-613,1884
15350,13948,4402,5846,10638,-729,1975
15360,13986,4525,6455,11101,-822,1961
15370,14243,4856,8720,11195,-358,2123
15380,14415,4282,11904,10645,45,2135
15390,14694,3573,14441,10825,-63,1987
15400,14576,3633,13798,11603,-173,1940
15410,15905,4315,10351,8426,-2222,2138
15420,15660,4094,10436,4685,-3573,1820
15430,14310,3552,8814,-3559,-6038,1252
15440,15037,3311,7366,-7676,-7882,1301
15450,16137,3275,6082,-11019,-8839,1641
15460,18134,2837,5875,-13666,-9081,1868
15470,21851,2760,6509,-14951,-5302,689
15480,21306,2574,5864,-14000,1162,-1353
15490,19813,5876,3993,-11192,10490,-3845
15500,16339,10730,6314,-5733,11980,-2485
15510,19772,8909,7161,-4742,1928,-36
15520,21892,6589,8093,-3382,-5042,718
15530,20308,5791,8688,-264,-4838,501
15540,15525,4303,5569,4731,-1730,1002
15550,14933,3414,4595,5697,-1711,1366
15560,14121,2751,4155,6652,-670,1710
15570,13207,1095,4410,9030,1582,3084
15580,13656,731,4485,10710,2545,4048
15590,14507,451,4403,12601,3447,5031
15600,15927,822,3616,16100,4620,6483
15610,16423,1118,2954,17151,4475,6811
15620,16764,1342,2449,17528,4113,6937
15630,16636,1223,2445,17365,3519,6845
15640,17979,792,2490,17124,1612,6583
15650,18059,1064,2160,16672,980,6303
15660,18434,1627,2746,14141,-659,5423
15670,17925,1308,3046,12898,-1282,5194
15680,16886,1607,2916,12157,-1475,4756
15690,16315,1962,3135,11469,-1139,4626
15700,15040,2648,3292,10250,-1084,4503
15710,14280,2880,3567,9786,-876,4489
15720,13777,3325,3468,9584,-1014,4246
15730,13456,3889,2955,9528,-1257,4097
15740,12959,5010,2574,8698,-1178,3526
15750,13134,5385,2671,8067,-1292,3198
15760,12725,5765,2729,7502,-1183,2820
15770,12756,6372,2743,6677,-1394,1999
15780,12764,6723,2733,6352,-1319,1605
15790,12645,6960,2564,5919,-1395,1070
15800,12855,7376,2709,4870,-1166,80
15810,13018,7420,2985,4391,-1066,-327
15820,12844,7283,3425,4038,-1044,-696
15830,12834,6790,4211,4070,-1028,-813
15840,13438,5616,5538,5950,-683,-523
15850,13723,5211,5646,7427,-503,-355
15860,13993,4815,5716,8774,-161,-131
15870,14276,4521,5718,9879,259,53
15880,15633,4475,5351,11722,843,-9
15890,16349,4733,5428,11393,771,-231
15900,17212,4917,5632,10899,730,-413
15910,18708,5026,6164,9715,640,-705
15920,18976,4887,6360,9076,488,-884
15930,19032,4701,6480,8440,267,-1065
15940,19532,4322,6909,7214,26,-1311
15950,20215,4111,7272,6691,203,-1228
15960,21262,3986,7822,6212,396,-1042
15970,23523,3959,8602,5299,544,-516
15980,23537,3956,8825,4377,199,-426
15990,24538,3608,9177,2792,-1287,-435
16000,24703,3072,8780,952,-2499,-792
16010,19495,1504,8539,-2748,-1167,-2427
16020,15904,1673,8092,-3696,472,-2838
16030,13623,2011,7452,-4052,1731,-2695
16040,11621,2765,5430,-4102,3365,-1921
16050,11441,3513,4657,-4220,3923,-1517
16060,12002,4322,4004,-4491,4043,-980
16070,12778,5282,3113,-5053,3513,-620
16080,14452,7238,1908,-8519,2009,-778
16090,15269,7528,2268,-11282,1495,-1194
16100,15632,7460,3176,-13776,1165,-1717
16110,15520,6978,5205,-16526,575,-2517
16120,15448,6686,5532,-16530,836,-2620
16130,14880,6113,5662,-16153,1360,-2709
16140,13607,5864,5575,-14801,1538,-2610
16150,12907,5524,5371,-14091,1667,-2468
16160,12445,5133,5344,-13345,1895,-2288
16170,11415,5040,4943,-11422,2595,-2179
16180,10913,5086,4784,-10452,2771,-2106
16190,10624,5130,4397,-9530,2586,-2006
16200,10365,5240,3805,-7840,1946,-1948
16210,9798,5415,3437,-7102,1703,-2082
16220,9777,5712,3105,-6579,1129,-2207
16230,10178,5821,2942,-6292,474,-2318
16240,10705,6110,2803,-5949,-7,-2673
16250,10869,6146,2784,-5892,-268,-2852
16260,10973,6163,2584,-5907,-541,-3005
16270,11402,5840,2844,-6064,-1058,-2933
16280,11402,5411,3038,-6059,-1356,-2713
16290,11545,4893,3321,-5751,-1613,-2380
16300,11747,4484,3593,-5087,-1748,-1940
16310,12683,3741,4057,-3178,-1919,-907
16320,13108,3412,4332,-2036,-1853,-395
16330,13412,3036,4737,-813,-1771,167
16340,14557,2322,5976,1805,-1637,1316
16350,15606,1586,6903,3459,-1407,1834
16360,16000,1344,7708,8306,-1444,2014
16370,15896,1145,7849,10376,-1275,2462
16380,16154,479,8598,11993,-1249,3009
16390,16382,-292,10244,13165,-1433,3309
16400,16729,-6809,26469,16467,-5200,3067
16410,19274,-8102,31504,22178,-10068,2175
16420,19182,596,17044,24826,-13020,444
16430,15129,4512,8581,-4969,-10159,-593
16440,13637,1317,6399,-13557,-10576,-337
16450,14288,1317,4218,-15269,-9533,83
16460,16277,2464,3605,-15450,-3918,877
16470,21285,4584,3995,-16277,7600,922
16480,23084,6236,3439,-17178,11759,121
16490,22229,7360,5977,-18158,14082,-877
16500,23726,9038,8718,-14252,132,-1770
16510,24171,8886,8392,-10895,-6217,-2145
16520,20611,8976,7425,-7418,-7402,-2839
16530,16969,9030,6991,-4611,-6977,-3093
16540,13403,9529,6629,-74,-4909,-2441
16550,11259,9694,5342,1774,-2335,-1773
16560,11341,8229,3738,2536,-243,-441
16570,14583,5928,2577,3828,3673,1482
16580,16007,5200,2657,4091,4182,1889
16590,17015,4679,3257,4455,4380,2170
16600,17722,3996,3943,6707,3957,2509
16610,17365,3384,3896,8158,3593,2678
16620,16767,2808,3619,9636,3105,2837
16630,16055,1819,3087,11774,1279,3058
16640,15406,1428,3223,12164,-20,2850
16650,15024,874,3890,12285,-907,2949
16660,14092,779,4342,13080,-1399,3306
16670,13798,931,4227,13251,-1288,3552
16680,13226,1583,3698,13084,-1172,3503
16690,13010,2101,3377,12382,-1212,3339
16700,12309,2706,3509,10786,-861,3137
16710,11719,3163,3462,10190,-728,2908
16720,11677,3204,3741,9523,-763,2776
16730,11428,3198,3982,9002,-858,2612
16740,11289,3739,4025,8674,-1154,2134
16750,11370,4112,3848,8560,-1297,1850
16760,11708,4442,3838,8245,-1396,1592
16770,12373,4971,3686,7196,-1749,903
16780,12613,5069,3728,6382,-1826,535
16790,12947,5025,3858,5511,-1877,183
16800,13422,4903,4273,4658,-1970,-261
16810,13930,3778,5601,3176,-1896,-1365
16820,14543,3111,6337,4343,-1613,-1133
16830,14847,2873,6575,5278,-1409,-856
16840,15047,2678,6610,6349,-1221,-506
16850,15262,2569,6594,7352,-1054,-228
16860,16518,2884,6910,9227,-562,318
16870,17282,3348,6880,10057,-397,562
16880,18613,4043,6507,10555,-594,637
16890,19214,4176,6421,9981,-902,405
16900,19801,4208,6162,7383,-2007,-381
16910,19962,4315,6212,5351,-2327,-861
16920,20555,4347,6943,2765,-2692,-1159
16930,22174,4084,7984,-252,-3779,-1399
16940,22998,3466,11607,-4583,-5091,-2310
16950,22391,3428,13356,-4863,-4948,-2311
16960,22382,3371,13499,-4236,-3475,-1868
16970,22540,3328,12243,-3556,-482,-1358
16980,18560,3722,7846,-3610,4603,-1628
16990,16100,4071,5945,-3939,5070,-1954
17000,14375,4236,4654,-4457,4781,-2168
17010,12189,4496,2710,-6323,3201,-2535
17020,11968,4666,2212,-7772,2407,-2449
17030,12300,5154,2208,-9385,1849,-2189
17040,14768,6560,2926,-12636,812,-1639
17050,15851,7507,3266,-14176,290,-1760
17060,16493,8651,3159,-15746,-499,-2235
17070,16695,9103,3153,-19597,-1442,-3450
17080,16360,8327,3849,-21262,-1054,-3939
17090,15782,7721,4586,-21943,-780,-4435
17100,14773,7177,5205,-21651,-610,-4737
17110,12671,5629,6791,-18806,175,-4291
17120,11637,4934,7286,-16087,971,-3737
17130,10961,4797,7155,-12829,1551,-3205
17140,10006,5179,5575,-6934,2480,-2349
17150,9873,5350,4738,-4923,2566,-2049
17160,9754,5409,3930,-3447,2646,-1898
17170,9490,5379,2947,-2470,2732,-2085
17180,9549,5344,2675,-1769,2496,-2282
17190,9358,5463,2217,-1837,2161,-2554
17200,9512,5586,2016,-2158,1846,-2678
17210,10509,5685,1709,-3420,953,-2575
17220,11033,5336,1859,-4163,508,-2504
17230,11554,4976,2295,-4766,26,-2511
17240,11672,4549,2659,-5021,-568,-2586
17250,11719,3443,3043,-4482,-1384,-2146
17260,11780,2889,3292,-3940,-1514,-1695
17270,12403,2278,3964,-2230,-1563,-508
17280,12637,1934,4193,-1029,-1465,40
17290,13003,1667,4518,362,-1364,605
17300,14629,780,5968,1920,-1941,1761
17310,15875,574,5957,6296,-2211,2089
17320,16103,339,6342,8401,-1708,2236
17330,16339,242,6773,10051,-1450,2426
17340,17724,-1431,10638,11892,-2082,3216
17350,17953,-3216,16857,13373,-3579,3222
17360,18301,-6860,28999,17494,-7335,3116
17370,18842,4620,13212,27954,-20202,-293
17380,21240,8992,8291,10807,-18914,-449
17390,18364,5341,10531,-8811,-11389,584
17400,14041,2255,7277,-15264,-7215,576
17410,17456,2109,3281,-14892,-1612,1253
17420,20835,2853,2713,-15498,4552,1653
17430,23913,4256,1314,-16663,10590,1592
17440,25745,6117,5354,-18747,16755,-161
17450,22196,6825,12423,-20523,16551,-1833
17460,23673,7807,12685,-15774,1475,-2793
17470,24536,8188,9634,-9948,-9209,-2943
17480,15492,9128,6289,-2454,-6348,-2983
17490,13446,9298,5405,-1284,-5464,-2753
17500,11555,7187,3515,192,-1570,-886
17510,12994,6075,3054,1352,747,500
17520,14356,5415,2773,2324,2339,1296
17530,15796,5431,2478,2896,2420,1615
17540,17681,5513,3289,3814,2490,1935
17550,17849,5427,3391,4822,2553,1915
17560,17615,5124,3227,5995,2794,1985
17570,16377,3220,4455,8184,2755,2348
17580,15492,1872,4898,9972,2020,2635
17590,15103,398,5086,12106,1051,3159
17600,14944,-623,4854,14369,273,3716
17610,13865,-1132,3750,17660,-495,4444
17620,13587,-664,3263,18347,-821,4504
17630,13232,118,3019,18485,-687,4424
17640,12290,1438,2543,17662,22,4534
17650,11923,2027,2523,16724,-11,4532
17660,11697,2494,2642,15631,135,4476
17670,11578,2526,2978,14465,215,4325
17680,11102,3335,2644,12533,289,3626
17690,11142,4060,2305,11370,56,3106
17700,11524,4800,2126,9954,-159,2558
17710,11636,6386,2174,6664,-878,976
17720,12031,6511,2858,4924,-1361,476
17730,14215,5453,5143,3170,-2291,-1146
17740,14231,5015,5429,3549,-2287,-1289
17750,14319,4606,5683,4087,-2305,-1382
17760,14470,4328,5920,4749,-2278,-1397
17770,15094,3908,6397,6388,-2004,-1076
17780,15178,3764,6459,7289,-1986,-942
17790,15170,3572,6520,8165,-2005,-783
17800,15576,3652,6483,9776,-1816,-328
17810,16135,3994,6360,10328,-1595,-62
17820,17045,4237,6363,10444,-1697,33
17830,17968,4792,6012,9111,-2764,-458
17840,18519,4856,6100,7331,-3695,-824
17850,18963,4621,6683,4745,-5146,-1319
17860,19320,3426,8199,1737,-6745,-1969
17870,19900,2379,10869,-3800,-9495,-3205
17880,20854,1486,13470,-5337,-9673,-3193
17890,20517,1813,16460,-5256,-7193,-2913
17900,22597,4596,15662,-909,-681,-560
17910,23849,5586,9594,-659,4652,-397
17920,22320,5299,7208,-2938,8463,-1160
17930,17981,4758,4433,-6313,8202,-2448
17940,15841,4481,3583,-7632,7092,-2936
17950,13838,4408,2899,-8882,5815,-3374
17960,12528,4829,1809,-11459,2467,-3304
17970,12613,5547,1778,-12695,1449,-2904
17980,13540,6337,1694,-13941,464,-2451
17990,16083,8507,869,-17411,-1457,-2699
18000,17057,9721,528,-20058,-2610,-3478
18010,17716,9989,1446,-23116,-3551,-4300
18020,16428,8804,4103,-26185,-3558,-5518
18030,15614,8096,5404,-25528,-3539,-5708
18040,15106,7653,6164,-23675,-3472,-5618
18050,12937,6110,7879,-21057,-2981,-5320
18060,11285,5424,7771,-13469,-1153,-4113
18070,10110,4995,7271,-9388,241,-3274
18080,9449,4939,6551,-5817,1361,-2361
18090,8997,5389,4525,-812,2228,-1179
18100,8940,5491,3617,416,2619,-927
18110,9116,5527,2958,968,2901,-884
18120,9398,5472,2137,179,2730,-1397
18130,9401,5425,1945,-856,2324,-1790
18140,9896,5259,2009,-2235,1683,-2107
18150,10436,4889,2095,-3728,1139,-2332
18160,11757,4289,2868,-6711,133,-2704
18170,12024,3795,3523,-7957,-698,-2893
18180,11777,2917,3719,-8129,-1886,-3020
18190,11634,3011,3639,-7444,-1785,-2777
18200,12271,2889,3667,-6833,-1986,-2217
18210,13097,2161,4344,-5532,-2214,-1058
18220,13592,1776,4525,-4479,-2271,-464
18230,14088,1622,5029,-3086,-2269,73
18240,15037,404,6085,669,-2401,703
18250,15054,294,6210,2909,-2209,897
18260,15290,-174,6384,4848,-1989,1359
18270,15915,-868,7452,6376,-1795,1992
18280,17605,-1355,8976,9222,-1429,2817
18290,18507,-1941,12501,10183,-2220,2889
18300,18167,-4013,21227,12650,-4774,2752
18310,17754,400,20265,27294,-16124,704
18320,17610,9724,12231,23270,-18367,126
18330,21632,12946,8238,7979,-13400,1291
18340,17165,5620,6487,-6049,-5312,2138
18350,20502,5063,26,-12068,-763,600
18360,23898,5783,-929,-15146,5428,947
18370,26729,6846,-1499,-19301,12141,549
18380,24318,6457,8583,-27825,22040,-2089
18390,21422,5830,15277,-26444,10450,-4466
18400,24686,6451,11752,-19513,-6963,-5770
18410,14646,7650,6485,-7207,-6538,-4695
18420,13215,6291,5553,-4842,-6059,-3267
18430,12453,4567,4558,-3016,-4762,-1938
18440,13123,2416,4578,1414,-239,751
18450,14292,2454,4431,3685,1350,1668
18460,15966,2881,3379,5640,2203,2283
18470,17102,3388,1116,7291,3595,2708
18480,17253,3382,594,7141,3683,2682
18490,16785,2872,819,6800,3129,2431
18500,16433,1469,1196,6850,2123,2081
18510,16098,1816,127,8541,-880,1693
18520,15137,1517,589,8120,-2067,1459
18530,14182,1307,2053,7873,-2890,1450
18540,13472,1481,3406,9782,-3770,2337
18550,12644,1806,3515,11229,-3754,2634
18560,12375,2059,3853,12772,-2890,3261
18570,12264,2646,3268,14265,-2217,3711
18580,12254,3104,3076,15564,-1022,4121
18590,12209,3608,2703,15752,-312,4074
18600,12199,4389,1998,15347,18,3830
18610,11835,5674,1604,12582,-128,2890
18620,12109,5619,2360,11063,-393,2497
18630,12008,5561,2874,10172,-370,2060
18640,14184,4705,4499,8921,-259,616
18650,14572,4419,4908,9123,-245,517
18660,14760,3673,5657,10123,-251,497
18670,14498,3285,5798,10935,-325,525
18680,14360,3000,5950,11863,-365,668
18690,14561,2842,6110,13645,-359,1138
18700,14584,2898,6038,14377,-325,1444
18710,14623,3031,5821,14933,-391,1603
18720,14758,3186,5704,15216,-474,1662
18730,15245,3548,5196,15141,-322,1776
18740,15711,3677,5204,14414,-209,1755
18750,16585,3833,5142,13162,-497,1596
18760,18321,4387,4912,8950,-2395,427
18770,19053,4449,4945,5347,-3683,-498
18780,19621,4300,5356,952,-5144,-1783
18790,19580,3705,6637,-3468,-5737,-2857
18800,19939,1621,10633,-8740,-5771,-3933
18810,19849,1132,12370,-8765,-4694,-3775
18820,20252,1103,14072,-7548,-3455,-2921
18830,21648,2030,15357,-2216,230,-361
18840,23766,2758,12656,149,2332,468
18850,24264,3057,9896,658,4957,469
18860,19993,3090,6899,-984,7951,-487
18870,18051,3425,5660,-1352,7314,-727
18880,15800,3442,4720,-1855,6308,-926
18890,13237,3785,2811,-3494,3768,-1341
18900,12208,4117,2232,-4715,3729,-1322
18910,12729,4681,2352,-6049,3768,-1041
18920,13860,6530,1503,-8887,3280,-1307
18930,15077,7553,882,-11058,2299,-1817
18940,16138,8716,-47,-13878,885,-2774
18950,17316,9761,246,-17555,-797,-3997
18960,17403,9103,1321,-24806,-3418,-5667
18970,16194,8358,2330,-26635,-3353,-6495
18980,15719,7602,3452,-27160,-3365,-6912
18990,13092,6421,4804,-25198,-3153,-7057
19000,11818,5549,5579,-23210,-2504,-6512
19010,10447,4703,6346,-20383,-1453,-5862
19020,8523,4015,6914,-12841,47,-4198
19030,8323,4256,6415,-8867,433,-3326
19040,8322,4803,5314,-5361,785,-2605
19050,8656,5266,4225,-2820,1024,-2112
19060,9140,5806,2617,-77,1639,-1682
19070,9434,6087,2230,461,2118,-1475
19080,9743,6158,1755,439,2263,-1289
19090,11178,5521,1938,-579,1702,-1152
19100,11802,5109,2308,-1029,1367,-1239
19110,12065,4542,2706,-1240,859,-1362
19120,12907,3417,3572,-825,-12,-1081
19130,13546,3110,3822,-149,-417,-819
19140,14083,2627,4636,638,-658,-417
19150,15541,1552,5417,3255,-912,367
19160,15725,1158,5407,4950,-709,588
19170,15497,1018,5161,6572,-525,785
19180,15353,495,5088,8936,-458,1664
19190,15430,46,5502,9874,-656,2105
19200,15666,-526,5985,10779,-910,2515
19210,15859,-1060,6983,11769,-1249,2805
19220,16164,-2813,11553,13721,-2221,3267
19230,17225,-4348,18131,15015,-3776,3218
19240,18302,-5604,29730,18395,-7287,2632
19250,17407,6568,20352,28634,-16337,-529
19260,18035,12229,10302,17748,-15499,-473
19270,17520,9963,7722,-564,-10798,1176
19280,17030,4696,-225,-16994,-7017,827
19290,19854,5093,-2145,-20289,-1432,-99
19300,23231,5512,-3028,-24350,7282,-589
19310,26271,6480,-3560,-29035,15536,-2149
19320,21892,5507,9253,-32766,24933,-6071
19330,20969,5039,16550,-32538,7962,-8146
19340,19531,6849,10240,-18777,-12015,-8180
19350,15499,7384,7533,-12596,-8973,-6556
19360,14081,6339,6039,-9321,-8205,-4722
19370,13715,4678,5118,-6881,-6210,-3005
19380,13044,2655,4543,-1457,740,-73
19390,13847,1948,5410,1242,3170,1310
19400,15318,1874,5475,4476,4486,2529
19410,17158,1743,3906,11100,6371,4363
19420,17761,1452,2791,13538,6632,4752
19430,18740,409,1972,15121,6191,4885
19440,18892,513,-256,16072,4706,4355
19450,17381,-647,-607,12961,310,2636
19460,16391,-1157,232,11373,-1283,2609
19470,15871,-1237,1382,10630,-2820,2606
19480,14749,65,1592,10775,-3285,2782
19490,13516,1902,1794,10512,-3993,3270
19500,13199,2632,1803,10234,-3573,3414
19510,12629,3276,1819,9863,-3191,3391
19520,11619,4434,1822,8905,-2490,3048
19530,11095,5038,1372,8282,-2621,2721
19540,10529,5352,1458,7387,-2782,2468
19550,10245,5511,2435,6583,-2348,2433
19560,11048,6056,3334,7605,-1280,1469
19570,11642,6088,3665,7733,-796,1205
19580,12659,5806,4330,8336,-264,720
19590,13128,5460,4502,8807,-85,633
19600,13526,4949,4801,9267,102,595
19610,13744,4026,5425,10612,384,494
19620,13884,3719,5596,11449,458,483
19630,14126,3470,5945,12297,597,553
19640,14312,3355,6044,13211,607,610
19650,14335,3363,5799,14804,321,772
19660,14751,3404,5819,15316,270,934
19670,15709,3596,5912,15647,189,1107
19680,17693,3981,5858,15628,47,1317
19690,18627,4125,5720,15090,-136,1290
19700,19814,4013,5774,12984,-953,695
19710,19755,3855,5825,11635,-1444,291
19720,19947,3576,6059,10173,-2083,-111
19730,22018,3145,7060,6911,-3461,-465
19740,22957,2826,7313,4869,-3996,-419
19750,23483,2478,7864,1975,-5232,-684
19760,24458,1293,9608,-1651,-6789,-1266
19770,24031,-972,11715,-6242,-6548,-2399
19780,22289,-1341,12361,-6883,-3449,-2485
19790,19200,-428,11896,-6317,769,-2207
19800,15494,1828,9040,-3508,4575,-1244
19810,14154,2910,6772,-2257,4813,-1029
19820,13004,4067,3767,-1950,4617,-577
19830,13348,5069,2400,-2825,4500,-300
19840,14063,6868,584,-4767,4345,-286
19850,14563,8363,-403,-8222,3507,-840
19860,16470,9161,1197,-17201,306,-2541
19870,16864,9434,2335,-20428,-578,-3287
19880,16815,9528,3373,-22693,-1621,-4071
19890,16304,8954,5665,-24307,-2680,-4737
19900,15312,8403,7097,-23203,-2786,-4770
19910,14030,7288,8028,-20787,-2822,-4563
19920,11885,5447,7475,-14216,-359,-3286
19930,11064,4994,6734,-11333,998,-2790
19940,10686,4998,5899,-9070,2179,-2352
19950,10653,5158,4995,-7390,3123,-2107
19960,10716,5608,4310,-4570,3643,-1796
19970,10536,5627,3725,-3798,3815,-1794
19980,10614,5805,3111,-3377,3961,-1762
19990,10677,5954,2195,-3830,3318,-2184
20000,10674,5793,2023,-4476,3052,-2401
20010,11026,5766,1879,-5188,2531,-2499
20020,11745,5084,2469,-6393,1084,-2818
20030,12049,4826,2512,-6623,377,-2952
20040,12109,4503,2529,-6708,-93,-3058
20050,12009,4026,2463,-6369,-739,-3032
20060,11941,3729,2669,-6036,-979,-2807
20070,12128,3357,2871,-5482,-1230,-2365
20080,12369,2913,3331,-4710,-1312,-1731
20090,12953,1982,4036,-2441,-1122,-493
20100,13483,1503,4874,-814,-1252,-39
20110,14796,873,5536,1263,-1362,213
20120,14413,594,5158,6333,-26,565
20130,14771,591,4906,8297,158,1162
20140,15551,469,4952,9767,322,1813
20150,16367,332,5551,11005,431,2405
20160,17960,98,6131,13168,-535,3188
20170,18416,-750,8134,13897,-1511,3399
20180,17850,-3555,15845,14931,-3151,3474
20190,18533,-4205,22976,21457,-12249,2824
20200,18885,1084,16550,14947,-16226,909
20210,18650,4452,18112,1173,-13399,432
20220,18643,4978,14148,-4664,-12457,957
20230,21162,4841,2633,-6129,-11489,1555
20240,23317,4564,-1549,-9554,-4432,1441
20250,23798,5257,-3002,-18631,16499,374
20260,25556,5867,-500,-22622,23279,-7
20270,21618,4735,8833,-24942,24209,-1155
20280,22787,5322,10357,-16483,-8277,-4881
20290,17941,6637,7802,-10253,-10467,-4964
20300,14156,7471,6384,-6017,-7575,-4169
20310,12678,7726,4876,-3819,-6536,-3171
20320,13996,5858,3577,-1292,-2703,-124
20330,14032,5945,3626,565,86,784
20340,14928,5554,3932,2171,1341,1483
20350,17019,4878,4115,5862,2597,2346
20360,17243,4662,3416,7806,3573,2667
20370,17303,3992,3294,9266,4274,2882
20380,16952,2801,3738,10513,4412,3088
20390,17156,-1012,4969,14470,2847,3974
20400,16899,-1166,2667,17051,1603,3989
20410,15880,-388,384,17569,200,3391
20420,14397,-102,625,13418,-2167,2738
20430,13350,303,1369,11814,-2291,2880
20440,12359,1086,1867,10980,-2564,2939
20450,11944,2112,2059,10739,-2851,3064
20460,11226,3947,1572,10022,-3103,3028
20470,11214,4464,1662,9150,-3189,2688
20480,11097,5511,2682,7374,-2397,1512
20490,11238,6786,2361,6142,-2159,532
20500,11283,7014,2786,5197,-2062,122
20510,11772,6806,3407,4621,-1943,-248
20520,12061,6540,4063,4586,-1622,-554
20530,13315,5623,5429,5680,-1101,-809
20540,13706,5172,5863,6777,-774,-802
20550,14012,4687,6095,8099,-562,-704
20560,14263,3841,6169,10826,55,-444
20570,14738,3476,6467,12088,438,-192
20580,14950,3244,6503,13385,765,44
20590,15089,3125,6451,14619,855,256
20600,15762,3212,6222,16542,931,761
20610,16487,3476,6165,17134,824,940
20620,17247,3858,5829,17381,501,978
20630,18528,4183,5523,17020,211,1015
20640,19178,4181,5655,13987,-1419,977
20650,19762,3913,5876,10942,-3306,278
20660,19909,3174,6477,7155,-5345,-708
20670,20278,1360,7743,-662,-7526,-2317
20680,21428,-119,9740,-4168,-7308,-2661
20690,22592,-1414,12115,-6494,-6384,-2875
20700,22072,-395,16985,-6280,-1971,-2246
20710,24151,2109,15298,-3509,1226,-902
20720,25117,3685,10349,-1049,5534,-80
20730,21253,4186,6459,-2439,9320,-845
20740,19295,4332,4512,-3594,7911,-1557
20750,15924,4356,2265,-4910,6621,-2455
20760,13408,6003,-1359,-9876,3214,-3441
20770,11418,6496,-1310,-13871,1888,-4365
20780,11193,6655,-720,-17562,463,-4505
20790,12730,8308,439,-21679,-2780,-4658
20800,13556,9544,742,-22922,-3917,-5011
20810,14277,10401,2192,-24056,-4594,-5101
20820,15003,10828,3529,-24500,-5300,-4894
20830,15554,9977,7411,-21182,-5389,-3703
20840,15277,8960,8022,-17489,-4203,-2962
20850,15376,8153,8298,-13445,-2600,-2265
20860,13030,6132,7584,-6235,973,-1530
20870,12877,5187,7423,-3281,2174,-969
20880,12506,5190,6514,-618,3447,-582
20890,11937,5533,5411,1297,4625,-308
20900,11791,5583,3967,2732,5367,6
20910,11253,5278,3437,2638,5294,-178
20920,10944,5160,3071,2172,4965,-336
20930,10771,4302,3316,280,3883,-965
20940,10604,4077,3633,-551,3234,-1244
20950,11211,4104,3571,-2421,2260,-1819
20960,11611,4145,2929,-3854,1542,-2181
20970,11722,4225,2493,-5640,776,-2533
20980,11424,4127,2425,-7380,148,-2878
20990,11463,3594,2860,-9737,-1566,-3033
21000,11563,3538,2949,-9948,-2214,-2934
21010,11530,3493,3201,-9552,-2502,-2741
21020,12318,3400,3138,-7997,-3375,-1906
21030,12616,3295,3322,-7219,-3638,-1461
21040,12670,2974,3583,-6339,-3630,-923
21050,13081,2614,3865,-5336,-3600,-311
21060,13771,1898,4783,-2798,-2819,810
21070,15224,1201,5767,-1225,-2171,1345
21080,15112,528,6777,966,-1343,1270
21090,16207,1139,6072,6408,-937,1478
21100,16830,1512,5973,8314,-371,1961
21110,17467,1782,6128,9628,-277,2339
21120,18353,1542,7491,10707,-658,2669
21130,17734,-7075,29872,16559,-4300,2733
21140,20064,-8452,30609,26746,-10164,1819
21150,18641,2095,13373,31230,-14458,-251
21160,17658,5093,8426,-4233,-6871,237
21170,14343,1103,8708,-14181,-4149,22
21180,17670,806,8460,-12228,-3123,356
21190,19844,1769,6658,-10874,-281,644
21200,21529,3465,3007,-11107,1768,540
21210,22839,4489,697,-13456,5256,704
21220,24065,6060,1568,-19451,14040,534
21230,20898,6078,7802,-19987,12873,-538
21240,20792,6425,10033,-16615,2964,-1553
21250,17667,7250,7611,-6122,-8303,-3212
21260,14306,7629,6605,-2107,-6687,-2948
21270,13099,7688,5474,643,-5969,-2328
21280,12595,7710,3549,2611,-4296,-1737
21290,13844,5038,2645,4323,1740,555
21300,14207,3794,3109,5063,3467,1295
21310,15870,2706,4126,6061,4018,2233
21320,18149,2209,4385,10419,4255,2887
21330,18013,1633,3881,12656,4908,3288
21340,18399,622,4010,14332,5475,3849
21350,18676,-637,3995,15863,5486,4203
21360,18272,-1925,2158,18069,4090,4136
21370,17735,-2011,980,17561,1708,3817
21380,16952,-2044,799,16065,-146,3511
21390,14522,1065,-57,12454,-2140,3148
21400,11983,4407,1570,5196,-4290,1940
21410,11903,4912,2274,4581,-4856,1902
21420,11692,5212,2819,4465,-4908,1740
21430,11102,5596,3614,4767,-4329,1196
21440,10995,5670,3768,5091,-3940,995
21450,10725,5796,3924,5491,-3443,892
21460,11399,6273,3816,6249,-2578,650
21470,11559,6520,4002,6417,-1878,469
21480,11878,6617,4186,6477,-1364,308
21490,13121,6201,4770,6636,-1086,149
21500,13646,5848,5134,7364,-372,-179
21510,13976,5438,5376,7943,-29,-220
21520,14152,4954,5552,8631,233,-220
21530,14509,4149,5795,9999,534,-149
21540,14611,3738,6043,10670,822,34
21550,14653,3343,6140,11414,954,159
21560,14787,3132,6110,12207,929,234
21570,15242,3272,6315,13531,776,419
21580,15829,3477,6523,13991,387,522
21590,16451,3647,6246,14112,99,610
21600,18324,3498,5957,11890,-753,294
21610,18710,3257,5905,9734,-1061,-184
21620,18745,2913,6084,7077,-1615,-718
21630,20605,1920,7269,4191,-2883,-1871
21640,21864,1473,8172,-1178,-2296,-2114
21650,23289,1023,9550,-2813,-1374,-2072
21660,25480,689,10016,-3443,-109,-1842
21670,25516,1129,9191,-3507,689,-1978
21680,24795,1291,8475,-4247,1619,-1893
21690,18945,1463,7265,-4961,3299,-1653
21700,16633,2289,6064,-4255,3215,-1586
21710,15146,2615,4880,-3974,2912,-1491
21720,13214,3626,2540,-3993,2450,-1488
21730,11117,4189,2106,-5726,1409,-1370
21740,10915,4583,1763,-6967,682,-1253
21750,11016,4993,1431,-8425,-82,-1292
21760,12682,6326,1601,-11861,-1480,-1552
21770,13785,7356,1881,-13624,-2038,-1961
21780,14778,8355,2332,-15354,-2621,-2473
21790,15837,9369,3669,-18414,-4113,-3428
21800,15729,8893,5485,-19036,-4135,-3475
21810,15336,7933,7257,-18144,-3533,-3278
21820,14651,6710,8538,-15723,-2903,-3045
21830,13504,5360,9205,-8575,-453,-2599
21840,12312,5023,8643,-5129,1075,-2357
21850,11737,4921,7448,-2235,1984,-2003
21860,11450,4923,5824,1114,3117,-1717
21870,11377,4747,5161,2010,3554,-1678
21880,10651,4786,3938,2398,4069,-2122
21890,10620,5024,3585,1781,3583,-2519
21900,10756,5315,2792,720,2929,-2856
21910,11313,5684,2443,-929,2349,-3113
21920,11011,5886,2674,-5266,824,-3407
21930,10874,6118,1713,-6882,-645,-3624
21940,10947,5957,2060,-8355,-1587,-3557
21950,11593,5158,2838,-9839,-2030,-2997
21960,11884,4718,3436,-9631,-2393,-2729
21970,12223,4169,3941,-8831,-2909,-2410
21980,12618,3509,3986,-6176,-3010,-1321
21990,12909,3122,3999,-4997,-2897,-608
22000,13336,2635,4270,-3975,-2674,126
22010,13840,2121,4626,-2924,-2354,692
22020,15818,1190,6142,-148,-775,1174
22030,15434,557,7195,1783,167,1135
22040,16072,-109,7794,4203,-543,1162
22050,16698,-240,7847,9652,-448,1851
22060,17127,-935,9180,11579,-92,2487
22070,17888,-2811,13607,13489,-312,3069
22080,20667,-7758,27023,16864,-2540,3245
22090,17573,18,13740,26022,-10544,462
22100,16855,3134,6710,14337,-13729,-192
22110,18866,3715,8278,-10684,-12042,189
22120,16597,2924,6912,-12991,-5937,354
22130,18765,2579,5796,-13523,-713,1177
22140,22179,4745,743,-16075,8188,1423
22150,23923,5798,-350,-18712,13238,1541
22160,24248,5898,2610,-21316,17535,1206
22170,22918,6027,9813,-18098,1169,-1180
22180,22317,6202,8521,-13284,-7953,-2251
22190,17112,7197,6740,-8436,-8002,-2801
22200,14504,8044,5589,-4959,-7527,-2649
22210,12644,8367,4041,-210,-5335,-1329
22220,12775,8270,2841,1846,-2283,-159
22230,14176,7195,2687,3171,878,1111
22240,16274,5388,3483,5086,3998,2243
22250,17319,5369,3316,6401,4357,2416
22260,17581,5351,2959,7798,4889,2464
22270,17250,5383,2409,8880,5052,2357
22280,16479,5306,1285,9621,4030,1958
22290,16331,4684,1610,9455,3137,1784
22300,15404,4449,1598,9363,1779,1448
22310,13536,3377,3306,9083,-722,1188
22320,12892,3232,3664,9492,-1753,1178
22330,11970,3712,3239,11336,-1773,1420
22340,12165,4341,3488,10460,-1618,1204
22350,12229,4438,3548,9907,-1696,1072
22360,12393,4460,3780,9356,-1778,929
22370,12531,4376,4174,8408,-1664,644
22380,12500,4349,4294,8047,-1683,401
22390,12586,4278,4478,7703,-1642,173
22400,12871,4302,4639,7426,-1566,18
22410,13579,4318,4944,7282,-1399,-237
22420,14038,4356,5041,7264,-1455,-418
22430,14259,4381,5060,7303,-1422,-622
22440,13969,4123,5148,7109,-1522,-1102
22450,13517,3789,5347,6966,-1779,-1390
22460,13316,3379,5617,6926,-2527,-1680
22470,14201,2469,6445,6706,-4293,-1821
22480,14660,2059,7068,6601,-4548,-1816
22490,14896,1816,7221,6402,-4555,-1860
22500,15173,1657,7353,5854,-4784,-2041
22510,16586,1403,8047,3729,-4288,-2459
22520,17737,1719,8834,2274,-2433,-2599
22530,18386,2221,8642,1840,-1757,-2573
22540,18253,2513,8242,1564,-512,-2496
22550,18763,2547,7425,1169,897,-2427
22560,18370,2513,7273,347,1801,-2467
22570,19223,2534,7159,-27,1993,-2389
22580,21832,3116,8026,-706,2423,-1876
22590,22571,3568,8131,-415,2581,-1623
22600,22554,4113,7578,-107,2278,-1445
22610,22335,4652,6928,-1098,1547,-1408
22620,22130,4735,6598,-1978,1622,-1575
22630,20781,4710,6049,-2845,1810,-1970
22640,16450,4456,4378,-4557,1582,-2856
22650,14471,4032,3844,-5557,1076,-3157
22660,12691,3615,3656,-6409,582,-3258
22670,11316,3212,3597,-6917,242,-3064
22680,10124,3167,3466,-6850,285,-1631
22690,10583,3614,3247,-6898,254,-669
22700,11497,4207,3122,-7343,46,195
22710,13575,5764,3147,-9149,-658,1028
22720,14637,6645,3154,-10248,-925,1003
22730,15546,7311,2935,-11424,-1036,708
22740,17052,8593,1985,-12783,-987,170
22750,17503,9563,1497,-16330,-1439,-1876
22760,16888,9360,1620,-18507,-2151,-3031
22770,17440,8899,3808,-20426,-2766,-3731
22780,14988,7697,9363,-18188,-4900,-5337
22790,13872,6480,10925,-13359,-4730,-5021
22800,11141,4217,10977,-866,-1203,-3093
22810,10578,4128,9696,4752,741,-2251
22820,10240,4521,7702,8804,1934,-1828
22830,9349,6096,4036,11311,2604,-1747
22840,9322,6834,2882,10451,2255,-1819
22850,9280,7819,1161,8765,2001,-1985
22860,9718,8572,-143,5730,1666,-2157
22870,9336,7608,1169,-2698,694,-2737
22880,9290,7044,1979,-5907,-722,-2828
22890,9022,6753,2391,-7758,-2328,-2980
22900,9125,6544,2177,-8823,-4064,-2799
22910,9452,6251,1889,-8766,-4327,-2613
22920,9490,6001,1880,-8621,-4252,-2382
22930,9986,5480,2066,-8462,-4029,-1934
22940,10639,4425,2454,-8345,-3686,-739
22950,11225,4074,3090,-8343,-3597,107
22960,12247,3443,4188,-8195,-3486,1054
22970,15432,1165,7897,-5363,-2072,2573
22980,16557,601,9211,-2471,-1014,2848
22990,18654,675,9569,197,-896,2884
23000,20461,374,9964,2178,-734,2312
23010,20483,-818,14801,5400,-863,572
23020,21208,-3762,20828,8989,-2928,251
23030,19937,538,11172,15214,-7949,-988
23040,20044,690,8016,6570,-10664,-624
23050,22666,1272,8078,-5378,-12818,-254
23060,20416,4037,5290,-12390,-2588,148
23070,21909,5278,1458,-11973,2181,611
23080,22448,6191,-264,-14082,6108,357
23090,22051,7062,3367,-19797,10383,-527
23100,21685,6772,6414,-19184,8180,-752
23110,21345,6231,9047,-15911,2733,-954
23120,19903,5873,9458,-11070,-2399,-1259
23130,15216,6384,5792,-2161,-5283,-1553
23140,13813,6298,4203,-437,-4163,-1047
23150,13983,5263,4050,210,-2697,-194
23160,15665,4856,2863,2991,1042,1516
23170,16595,4373,3077,3609,2127,2204
23180,17328,4250,3208,4307,2753,2632
23190,17616,5031,2489,6378,3465,2748
23200,17416,5489,1899,6956,3309,2527
23210,17450,5378,1905,7290,2859,2324
23220,16931,4911,2349,7655,2234,2154
23230,15233,3897,3193,9119,780,1952
23240,14530,3337,3668,10074,489,2177
23250,12491,2468,4041,14394,766,3280
23260,11885,3068,3826,15997,549,3378
23270,11382,3574,3558,16577,352,3176
23280,11351,3791,3394,16912,86,3102
23290,10938,3773,3089,16737,285,2962
23300,10714,3983,2932,16431,715,2860
23310,10902,4234,2852,15869,1056,2744
23320,11281,4716,2887,14194,1356,2142
23330,11758,5025,2902,13176,1293,1681
23340,12137,5129,2910,12046,1297,1207
23350,12661,5131,3107,10781,1206,774
23360,13621,5123,3557,8405,708,-70
23370,13949,5068,3818,7365,390,-370
23380,14299,4932,4106,6466,33,-640
23390,14157,4522,4544,5476,-547,-1174
23400,14286,4298,4790,5355,-680,-1277
23410,14794,4242,5123,5399,-695,-1291
23420,15234,3896,5595,6135,-671,-1136
23430,15340,3784,5535,6717,-774,-1121
23440,15515,3759,5721,7349,-708,-1039
23450,16113,3932,5731,7951,-722,-912
23460,17579,4195,5954,8358,-1199,-711
23470,18226,4192,6000,8019,-1482,-721
23480,19023,4071,6095,7018,-2337,-830
23490,19539,3566,5483,2863,-4484,-1491
23500,19384,2998,6062,-353,-4949,-1994
23510,19960,2325,6987,-3794,-5578,-2537
23520,21596,133,12431,-8513,-7410,-2972
23530,20529,243,16172,-8022,-6952,-2847
23540,20030,1368,19564,-5667,-4617,-1803
23550,21146,3366,18198,-2217,-1236,-761
23560,22445,4583,8868,-939,7797,-492
23570,19556,4241,5823,-2488,8808,-1217
23580,17373,4063,3684,-4249,7287,-2160
23590,13372,3460,2630,-7873,4997,-3448
23600,11885,3421,2460,-9196,3184,-3972
23610,11411,3688,2593,-10199,1069,-4053
23620,11021,5117,2431,-10769,-563,-3763
23630,12473,6094,2445,-11770,-1979,-2196
23640,13813,7215,2459,-12541,-2374,-1617
23650,15332,8196,2131,-13956,-3009,-1476
23660,17280,9147,1153,-19106,-4840,-2208
23670,17782,8949,1388,-22455,-5349,-2588
23680,18269,9086,2086,-25384,-5747,-3347
23690,16598,9382,4232,-28717,-6493,-5661
23700,15772,8909,7663,-28369,-7364,-6551
23710,14573,8266,9399,-24988,-8108,-7076
23720,10532,6028,11017,-11648,-3783,-5445
23730,8898,5259,10215,-4275,-455,-3495
23740,8583,5215,8343,1796,1657,-1765
23750,9240,5735,5487,8268,3493,-767
23760,9073,5980,4210,9408,4318,-758
23770,9037,6206,3529,9702,4812,-720
23780,9970,7371,1310,8408,4157,-943
23790,10599,7985,-150,6116,3634,-1194
23800,10537,7411,-23,2433,2894,-1629
23810,10721,6121,763,-1507,2048,-1978
23820,10645,4236,2883,-6690,144,-2310
23830,10580,3883,3448,-7556,-987,-2337
23840,10444,3850,3291,-7615,-1879,-2264
23850,10692,3885,2698,-7452,-2326,-1419
23860,10913,3679,2831,-7341,-2490,-732
23870,11288,3199,3262,-7057,-2603,73
23880,12305,2074,4338,-5435,-1890,1676
23890,13404,1294,5651,-4196,-1333,2362
23900,14024,527,6806,-2497,-1047,2697
23910,15309,58,8196,-504,-1582,2792
23920,19294,-376,8172,3416,-1559,2115
23930,18965,380,8032,4429,-887,1106
23940,19585,546,10035,4821,-1241,955
23950,20810,-4505,21628,9902,-3430,1313
23960,21128,-4483,20481,16065,-5277,1060
23970,19547,-220,11919,19180,-5741,848
23980,19467,2108,11502,2071,-8599,661
23990,19851,4508,12412,-4393,-7100,546
24000,18989,5320,9306,-4601,-4041,778
24010,21919,5577,6196,-4022,-1677,1484
24020,25163,7388,358,-8532,5972,1818
24030,25524,7713,225,-12796,10406,1437
24040,22949,7476,3301,-16355,12644,798
24050,22201,6507,8168,-16086,-233,-365
24060,19906,6494,8072,-12589,-5415,-1345
24070,15703,6859,6979,-8350,-6378,-1935
24080,13495,7084,5216,-5002,-6789,-1913
24090,10807,7403,3383,-1353,-4455,-1324
24100,11176,6752,2970,-371,-2360,-440
24110,12426,6099,2968,466,-190,410
24120,14332,5307,3822,2474,1900,1240
24130,15264,5762,3352,4072,2011,1342
24140,15802,6513,2552,5383,2238,1313
24150,15825,6705,2124,5905,2365,1134
24160,15400,6198,1798,6201,1922,704
24170,14454,3881,3954,7227,179,161
24180,13457,3470,4319,8477,283,375
24190,13113,3253,4364,8982,130,449
24200,12379,3245,4308,9473,125,455
24210,11338,3383,4003,10314,-486,286
24220,11055,3519,3843,10540,-718,176
24230,10726,3839,3670,10571,-650,-6
24240,11462,3764,3648,10285,-899,-90
24250,11767,3572,3926,9539,-637,-461
24260,12170,3639,3919,9346,-645,-506
24270,12388,3798,3902,9043,-736,-717
24280,12721,3911,4048,8128,-577,-1104
24290,13072,4019,4133,7776,-304,-1188
24300,13724,4176,4459,7521,-56,-1235
24310,14301,4393,4699,7499,19,-1371
24320,14931,4648,4857,7820,-27,-1449
24330,14710,4676,4785,7996,-155,-1442
24340,14746,4624,4753,8115,-220,-1292
24350,15443,4565,5117,8071,187,-1053
24360,15594,4340,4946,7999,174,-1001
24370,15774,4073,5115,7701,166,-932
24380,16195,3815,5366,7308,398,-959
24390,17647,3229,6102,5969,-903,-1329
24400,18537,3024,6842,4889,-2078,-1705
24410,19268,2684,8036,2721,-4046,-2296
24420,19498,2118,9035,1637,-5024,-2690
24430,18325,1339,10392,744,-5033,-3071
24440,19541,-386,13521,8,-3424,-2518
24450,21106,-748,13998,-1888,-717,-2283
24460,22635,-5,13095,-2724,2427,-2108
24470,23072,2593,11904,-2926,5132,-1668
24480,24370,4461,8617,-1740,6854,-568
24490,23007,4582,7537,-1874,6381,-983
24500,20598,5023,6605,-2214,5596,-1651
24510,16071,4763,4486,-3070,3043,-2322
24520,13623,4035,3689,-3696,2165,-2353
24530,11938,3441,3358,-4261,1130,-2222
24540,10588,2986,3389,-4495,667,-1810
24550,9442,2542,3955,-3450,653,-279
24560,9380,2647,3795,-2526,303,668
24570,9848,2870,3632,-1800,-150,1618
24580,11704,3735,3993,-1177,-968,2983
24590,13088,4408,4132,-1019,-1360,3335
24600,14109,5077,4315,-947,-1544,3470
24610,16378,7017,3961,-1152,-2234,2949
24620,16802,8196,3005,-1757,-2220,2215
24630,17652,9429,2020,-3244,-2033,1467
24640,18272,11442,1915,-8791,-2625,-822
24650,18969,11657,2257,-11895,-3446,-1943
24660,18414,11116,4128,-14535,-3567,-3443
24670,14615,8070,9946,-14268,-5173,-5867
24680,13018,7981,11432,-10282,-4852,-6883
24690,10196,8156,12015,-5015,-3563,-7507
24700,5399,8457,5162,1742,-2169,-4407
24710,5870,8569,2892,1173,-2460,-2246
24720,7291,8663,2017,-712,-2794,-1004
24730,7970,8639,736,-3448,-2384,-1427
24740,7494,8619,662,-4588,-1476,-1806
24750,7036,8238,303,-5754,-963,-2056
24760,7057,7750,541,-6998,-1093,-2088
24770,7672,5807,953,-8991,-2019,-1974
24780,7965,4735,1135,-9311,-1920,-1755
24790,8306,3691,1247,-9342,-1389,-1175
24800,11174,3072,2091,-8826,-198,-22
24810,11533,3409,3416,-8416,222,-434
24820,11995,3361,4738,-7672,198,-41
24830,13187,3389,5732,-5982,-150,905
24840,15724,3469,7125,-811,1673,3136
24850,17135,3504,8164,2189,3095,4110
24860,19137,3734,8526,5344,4439,5021
24870,20749,1052,12835,11323,5875,5466
24880,20266,-2563,19071,15119,2607,5335
24890,22585,-3892,19528,19557,-2955,5019
24900,19258,-632,10436,16620,1341,4826
24910,20559,-866,11309,6491,5279,4725
24920,17781,-3036,14484,-5203,8091,4469
24930,19061,-219,8080,-7850,3756,1734
24940,20400,1799,4339,-6873,3067,1733
24950,22852,2541,3320,-9251,1119,1566
24960,24553,2702,4603,-12666,-1399,697
24970,25632,3658,7666,-14972,-5621,-2061
24980,24332,4052,8258,-13788,-5992,-2575
24990,21894,4100,8861,-11908,-6053,-2784
25000,15436,3815,7994,-7117,-5809,-2007
25010,14238,3939,6961,-4497,-5093,-886
25020,14147,4380,5860,-2000,-4142,145
25030,15912,6141,3842,1622,-1547,1921
25040,16673,7359,2623,2571,-861,2202
25050,17078,8418,1744,2724,-619,2105
25060,17145,9195,1792,2337,-892,1607
25070,16416,9943,3189,2065,-648,851
25080,16037,9463,3940,2960,-12,1255
25090,15840,8328,4546,4700,629,1957
25100,13183,3344,4943,16340,1737,4215
25110,12619,2856,4061,18079,2145,4571
25120,11841,3199,3535,20119,2406,4844
25130,12001,3415,3278,20355,2123,4739
25140,11882,3256,3115,20152,1872,4621
25150,10852,3076,3047,19527,1872,4177
25160,10678,3166,3150,19224,1733,4054
25170,10508,3382,3208,18798,1596,3818
25180,10715,3714,3515,18385,1485,3624
25190,10733,3818,3522,17822,1191,3284
25200,10978,3941,3500,17482,1105,3078
25210,11249,4073,3409,16926,1058,2789
25220,12089,4261,3431,15056,874,2154
25230,12780,4331,3653,13881,575,1795
25240,13498,4256,3919,12695,57,1333
25250,13899,3890,4398,10582,-662,495
25260,14016,3630,4525,9721,-1059,213
25270,14171,3371,4647,8994,-1443,10
25280,14621,3153,4946,8330,-1707,-89
25290,15238,3155,5304,7142,-2621,-336
25300,15530,3230,5268,6255,-3520,-579
25310,16352,3101,5769,4957,-4585,-994
25320,17602,3380,6236,1993,-5654,-2041
25330,18451,3505,6696,-65,-6026,-2461
25340,18948,2295,9181,-4330,-6443,-3203
25350,18678,1652,10053,-5288,-6561,-3375
25360,18922,444,11567,-5806,-7048,-3208
25370,18273,211,12013,-5498,-6291,-3282
25380,18774,655,13567,-5064,-4755,-2915
25390,20800,2888,16745,-2357,-333,-656
25400,23003,4134,15535,-149,1973,328
25410,24661,4737,11694,1141,4639,431
25420,23806,4055,8021,26,6654,-992
25430,21872,3757,7139,-3819,7565,-1676
25440,19723,3561,6118,-4701,6830,-2263
25450,17645,3301,4942,-5429,5578,-2915
25460,13455,3089,3158,-7311,2802,-4111
25470,12130,3022,3063,-8311,1102,-4236
25480,11596,2901,3221,-8872,-156,-3917
25490,11149,3358,3181,-8819,-305,-3249
25500,11669,5213,3246,-9277,-220,-1313
25510,13844,5874,3615,-10316,-975,-582
25520,15355,6763,3591,-11504,-1732,-760
25530,16612,8017,2891,-12923,-2547,-1468
25540,18192,10470,-987,-19163,-4506,-3546
25550,17668,10140,-1108,-24559,-4915,-4969
25560,16682,8787,2046,-32395,-4793,-7474
25570,15451,8118,4154,-32766,-5062,-8335
25580,14273,7620,6128,-32500,-5792,-8998
25590,10650,5656,9737,-24205,-4915,-8028
25600,8372,5092,10429,-17051,-2762,-6435
25610,6307,4754,9662,-9281,-608,-4212
25620,7563,5250,6343,3313,858,229
25630,9006,5825,4983,6547,820,695
25640,9885,6337,3743,8256,1399,550
25650,9895,6834,2868,9078,2545,201
25660,9474,7468,1620,8482,2813,-669
25670,9603,7661,871,7146,2098,-801
25680,9995,7392,703,4994,1459,-762
25690,10520,6756,948,2514,808,-955
25700,11195,5291,2272,-1378,212,-1353
25710,11236,4450,3230,-2402,36,-1347
25720,11702,3644,3750,-2712,-113,-978
25730,12296,2183,5031,-1526,403,324
25740,12743,1761,5266,-360,740,1021
25750,13098,1583,5278,1015,961,1579
25760,14108,564,7018,3408,1187,2571
25770,15712,-552,8570,5008,920,2971
25780,16130,-1721,9710,7222,809,2849
25790,16572,-2064,10121,9614,405,2474
25800,18234,-494,7979,11455,-611,2230
25810,18946,-418,9584,10305,-1330,2055
25820,19825,-3464,24180,10659,-6407,1012
25830,18884,-1028,19962,14606,-11532,-392
25840,17077,3590,11326,12467,-17499,-1579
25850,19962,4134,7707,1496,-21998,-1092
25860,17707,3449,4716,-11050,-11548,309
25870,16771,1778,2915,-12816,-1752,659
25880,18085,1578,2061,-14138,5850,1300
25890,23161,2485,2381,-17622,17304,2003
25900,23611,3177,4190,-18922,21584,1740
25910,21282,3168,9160,-19240,19408,1232
25920,27078,4077,9925,-13244,-4719,-105
25930,22356,5108,8547,-8492,-6335,-774
25940,18358,5378,7226,-4686,-5934,-837
25950,16359,5407,5854,-1954,-5940,-392
25960,14577,5600,3697,1745,-2810,801
25970,14397,5677,3271,2950,-760,1237
25980,14868,5218,3776,3918,889,1741
25990,16426,5571,3247,6942,2151,2390
26000,16856,6027,2077,8028,2359,2484
26010,17281,6305,1289,8201,2469,2364
26020,13927,3599,3342,10291,815,1745
26030,13243,2961,3538,11591,298,1993
26040,11784,2234,3929,14010,-9,2562
26050,11558,2212,3697,15118,-140,2910
26060,11305,2481,3615,15945,34,3198
26070,11485,2767,3555,16455,95,3250
26080,11142,3234,3515,16594,143,3080
26090,10946,3651,3480,16702,399,3033
26100,10972,4022,3377,16702,554,3050
26110,10976,4466,3144,16134,603,2708
26120,11202,4781,2959,15594,570,2356
26130,11512,5084,2851,14829,554,1993
26140,12092,5356,2871,13853,478,1650
26150,12814,5624,2841,11412,46,790
26160,13218,5471,3045,9999,-229,381
26170,13426,5231,3413,8669,-476,-43
26180,13500,4628,4163,6740,-1094,-891
26190,13617,4188,4522,6291,-1238,-1143
26200,13930,3798,4955,6139,-1198,-1238
26210,14423,3515,5350,6344,-1111,-1240
26220,15246,2978,5991,7640,-957,-912
26230,15517,2849,6002,8592,-1140,-732
26240,15928,2834,5921,9486,-1262,-497
26250,16562,2933,6006,10213,-1246,-188
26260,18027,3240,6126,11152,-1365,450
26270,18681,3485,6046,11079,-1875,551
26280,19545,4023,5529,8330,-4314,-513
26290,19545,4081,6110,5273,-5707,-1254
26300,18667,4129,6032,1432,-7963,-2282
26310,17593,947,13066,-3461,-11184,-3332
26320,16256,-604,21280,-9949,-10660,-3993
26330,17293,-540,28523,-7925,-6691,-2719
26340,22621,2025,23900,-3610,-230,-1082
26350,24783,5753,7040,553,10654,-545
26360,25149,5686,4600,-2330,10350,-1116
26370,24015,4549,4667,-5888,9177,-1810
26380,19031,3808,3909,-9094,6265,-3587
26390,16414,3940,3082,-9811,4445,-4260
26400,14548,4055,2490,-10774,2312,-4710
26410,13299,4140,2080,-11894,167,-4882
26420,11724,4494,1982,-13562,-1773,-4272
26430,11493,5116,1869,-14292,-2013,-3789
26440,12114,5996,1978,-15175,-2224,-3160
26450,14874,7823,2474,-17826,-3565,-2188
26460,16219,8688,2152,-19227,-4385,-2130
26470,17265,9434,2072,-20911,-5118,-2485
26480,18477,10023,2495,-24187,-5952,-4166
26490,16825,10657,2923,-25383,-5863,-5652
26500,14755,10161,4591,-26065,-5733,-6606
26510,12473,6503,9530,-20168,-4994,-5955
26520,11165,5675,10006,-13588,-3347,-5175
26530,9167,4954,9367,-6600,-1016,-3957
26540,8446,4709,8320,-201,1616,-1935
26550,8708,5111,5500,8054,3601,386
26560,9018,5302,4165,9550,3939,839
26570,9689,5084,4125,10054,4393,1103
26580,9702,5125,3678,10571,5021,737
26590,10055,5397,3604,10160,4493,512
26600,11041,5857,2692,9160,3709,298
26610,11534,6301,2002,6924,3095,-306
26620,10867,5457,2411,172,1827,-1592
26630,11002,4919,2873,-2546,592,-1912
26640,10611,4929,2941,-4198,-596,-2325
26650,10843,5084,3064,-5953,-2442,-2442
26660,11312,4934,3372,-6323,-2888,-2147
26670,11410,4661,3460,-6161,-3016,-1790
26680,11499,4082,3584,-5229,-3151,-722
26690,11754,3747,3837,-4891,-3290,101
26700,12608,3095,4316,-4623,-3424,956
26710,15043,1582,6938,-2895,-3329,1904
26720,15775,1550,7374,-1281,-3164,1961
26730,17171,1243,8781,409,-3282,2052
26740,19328,-942,13262,4649,-3453,1358
26750,18928,-2853,19336,8129,-4124,580
26760,20056,-3783,19994,13752,-5549,301
26770,18440,633,10949,17545,-6661,-301
26780,18010,-503,5483,467,-9262,-202
26790,19165,-2093,7388,-8982,-9524,-735
26800,17294,-1726,9998,-13529,-5810,-1111
26810,18111,708,8461,-9987,-517,273
26820,19939,2203,6311,-7975,-196,652
26830,21930,3823,4265,-7670,516,761
26840,23104,5593,2338,-8358,2724,658
26850,23516,8548,3563,-9943,6031,-157
26860,23946,9307,6272,-9819,3266,-210
26870,23824,9151,7574,-8171,-1380,-522
26880,17227,7797,7714,-2371,-5187,-2153
26890,15136,7808,7169,539,-4532,-2252
26900,13754,8363,6322,2943,-2857,-2116
26910,12260,9235,4052,4365,-447,-1898
26920,14113,5330,3059,3433,3128,255
26930,15247,4597,3049,4156,3871,1137
26940,19150,4560,4173,9711,2947,2916
26950,18285,4437,3681,11200,2296,2779
26960,17274,3878,3143,11584,1919,2655
26970,16518,3017,3326,11617,1436,2655
26980,14274,2484,3604,11720,839,2574
26990,13339,2206,3798,11758,354,2496
27000,12893,1991,4187,12061,176,2591
27010,11783,1984,4351,13386,116,2765
27020,11428,2155,3992,14066,130,2883
27030,11329,2683,3773,14463,257,2994
27040,11257,3055,3473,14501,360,2988
27050,10830,3604,2848,13409,93,2642
27060,10952,4121,2633,12520,150,2473
27070,10777,4598,2427,11339,352,2233
27080,11198,4541,2863,8453,193,1571
27090,11350,4627,3077,7274,56,1070
27100,11670,4778,3182,6216,-227,564
27110,12671,4906,3685,4430,-563,-173
27120,12979,4867,3919,3804,-691,-476
27130,13233,4648,4113,3369,-775,-677
27140,13609,4432,4534,3107,-857,-818
27150,13599,3946,5047,3303,-1033,-1085
27160,13721,3640,5260,3677,-1047,-1075
27170,14132,3441,5599,4231,-867,-951
27180,14661,2943,6097,5943,-396,-478
27190,14937,2795,6161,6997,-111,-158
27200,15702,2774,6265,7985,123,175
27210,17345,3214,6328,9684,829,791
27220,18159,3362,6268,10201,1073,986
27230,18492,3470,6153,10469,1203,1095
27240,19161,3687,5615,9830,637,983
27250,19085,3562,5677,8927,149,776
27260,19318,3329,5705,7830,-410,586
27270,20702,3338,6294,6524,-987,378
27280,22388,3280,7040,3392,-2157,365
27290,23229,3221,8551,1708,-3010,339
27300,23982,3219,10025,439,-4339,280
27310,24025,3539,10941,-1204,-5379,-460
27320,21685,4147,10408,-1452,-2834,-815
27330,19027,4470,9390,-1715,-391,-1067
27340,16743,4470,8205,-2030,1454,-1175
27350,12789,4513,5029,-2709,2947,-1320
27360,12114,4601,3987,-3426,2799,-1225
27370,11998,4931,3053,-4341,2749,-977
27380,13431,6073,1366,-7562,1882,-483
27390,14487,7243,450,-10154,875,-894
27400,15630,8743,-327,-13623,-383,-1770
27410,17409,10354,984,-17925,-2167,-3954
27420,16947,10766,3005,-25554,-4615,-4966
27430,15990,10262,6696,-26952,-5888,-5692
27440,14770,8603,11227,-20633,-6147,-5041
27450,14368,7843,10758,-15069,-4477,-4300
27460,13326,6940,8503,-10298,-2230,-3617
27470,11414,5352,7467,-5408,2112,-2489
27480,11020,5401,6628,-3343,2995,-2264
27490,10262,5438,5500,-1611,3670,-2150
27500,9582,5720,4333,-577,3951,-2038
27510,9639,6425,2573,-566,3646,-1809
27520,9490,6577,1900,-1679,3367,-1917
27530,9382,6557,1944,-3381,2803,-2107
27540,9951,6308,1670,-6779,1617,-2590
27550,9986,6320,1840,-8145,943,-2879
27560,10124,6210,1977,-9196,39,-3000
27570,10727,5647,2455,-10177,-1473,-2903
27580,10821,5508,2860,-10039,-1975,-2874
27590,11147,5376,2961,-9544,-2455,-2736
27600,11370,5218,2822,-8776,-2748,-2533
27610,11659,4695,2871,-7441,-2630,-1855
27620,11937,4181,2980,-6877,-2378,-1424
27630,12051,3786,3088,-6227,-1917,-885
27640,13109,2783,4117,-4574,-736,504
27650,14300,2285,4709,-3417,14,1216
27660,15709,908,6604,-66,2023,1702
27670,16055,-101,8261,2436,2099,1619
27680,16554,-312,8336,6010,1459,1610
27690,17585,83,7480,9694,1243,2036
27700,18471,-628,9886,13912,1067,2991
27710,18405,-4908,20322,16035,-542,3464
27720,19397,-7173,26862,21845,-4832,3463
27730,17939,802,9211,13891,-15208,876
27740,21341,-1483,11543,-5902,-16054,486
27750,18434,-266,12420,-15800,-11142,754
27760,16543,1389,7596,-16067,-8303,106
27770,19216,2627,827,-16382,1445,658
27780,21290,3081,887,-17449,8543,641
27790,22619,4166,2444,-18015,14696,-87
27800,21866,5819,9711,-15585,10213,-652
27810,23868,5586,9766,-12433,-1520,-895
27820,21638,5946,8316,-8751,-8874,-1993
27830,16871,6881,6199,-5140,-8990,-2543
27840,14140,7469,4846,-687,-7261,-1556
27850,13947,8232,3314,1102,-5145,-813
27860,14283,8385,2605,2052,-2651,88
27870,18390,6667,2461,7231,3459,3154
27880,18619,6328,2416,7792,3793,3271
27890,18344,5923,2445,8368,3765,3289
27900,16950,4580,2920,9756,2516,3137
27910,15953,4004,3025,10579,1486,3013
27920,14960,3155,3322,11327,851,3084
27930,13851,2767,3281,12118,428,3191
27940,11982,2272,3370,13090,-386,3373
27950,11391,2167,3487,13456,-567,3506
27960,10930,2368,3463,13884,-837,3508
27970,10571,2655,3259,14323,-1272,3576
27980,10751,2703,3335,14302,-1239,3625
27990,10769,2956,3405,14213,-1033,3619
28000,10894,3305,3381,14065,-957,3406
28010,11001,3805,3201,12980,-1199,2784
28020,10921,4038,3014,12238,-1064,2423
28030,11038,4304,2724,11345,-1034,1988
28040,11610,4662,2709,8752,-1108,944
28050,11955,4696,2886,7388,-1167,481
28060,12969,4814,3232,6110,-1272,38
28070,13588,4656,3887,5017,-1479,-487
28080,13724,4381,4251,3379,-2144,-1249
28090,13869,4038,4708,3055,-2256,-1456
28100,14842,3386,5492,3483,-2205,-1544
28110,15556,3161,5915,4113,-2051,-1364
28120,16079,2930,6292,4973,-2000,-1155
28130,16625,2681,6623,7043,-2220,-801
28140,17059,2841,6635,8000,-2274,-689
28150,17561,3102,6706,8713,-2236,-563
28160,18843,3323,7154,8970,-2602,-362
28170,19376,3245,7509,7366,-4224,-871
28180,19480,3242,7396,5589,-5842,-1389
28190,19035,2652,7893,2997,-7515,-1965
28200,18828,1641,9304,39,-8240,-2442
28210,16645,-105,16756,-4213,-5414,-2998
28220,18412,1376,20417,-3205,-3025,-2092
28230,21920,4012,16587,-61,1172,-779
28240,22854,5692,6017,-459,7837,-1203
28250,22973,5253,4852,-4080,7660,-2192
28260,22344,4469,4941,-7065,7433,-2804
28270,18413,3723,4165,-8657,7147,-3172
28280,16147,4197,2875,-9785,4510,-4519
28290,14615,4565,1990,-10666,2623,-4944
28300,13546,4769,1534,-11988,791,-5270
28310,12660,5176,1468,-14559,-1723,-5047
28320,13003,5706,1878,-15504,-2067,-4586
28330,15144,7241,3224,-16696,-2755,-3567
28340,16315,7885,3669,-17201,-3563,-3104
28350,16888,8614,3641,-17570,-4188,-2884
28360,17288,9074,3395,-18114,-4406,-2862
28370,16832,8647,3114,-19890,-2783,-3431
28380,16363,8077,4007,-20413,-1743,-4092
28390,15213,7436,4734,-19966,-905,-4741
28400,12510,6165,6061,-16272,605,-4897
28410,11650,5526,6603,-13247,1135,-4404
28420,11184,5009,6973,-9591,1678,-3771
28430,9610,4704,5636,-1641,2909,-2330
28440,9271,4999,4361,1338,2895,-1640
28450,9454,5175,3402,3194,2797,-1057
28460,9452,5235,2715,4215,2960,-651
28470,9422,5188,1891,3931,2686,-379
28480,9778,5082,1805,2932,1817,-503
28490,10310,4880,1965,1708,1058,-646
28500,10832,4608,2182,348,564,-848
28510,11857,3630,3040,-2637,-161,-1182
28520,12185,3067,3620,-3848,-532,-1276
28530,12307,2569,4066,-4465,-860,-1401
28540,12376,2574,3793,-4098,-1248,-1177
28550,12483,2547,3623,-3844,-1401,-831
28560,12645,2294,3715,-3648,-1594,-288
28570,13101,1931,4239,-2404,-1805,694
28580,13333,1741,4680,-1336,-1830,1125
28590,13801,1286,5362,-110,-1962,1597
28600,16022,126,7593,3559,-2333,2151
28610,16102,-49,8147,5902,-1996,1875
28620,16701,318,8499,7971,-1686,1926
28630,18706,98,12075,10376,-2242,2044
28640,18558,-2103,19807,12117,-4123,1668
28650,19658,-5100,25329,17271,-7227,1183
28660,18863,-534,14840,22130,-11146,-254
28670,20541,2931,8410,-35,-14203,-103
28680,17766,2190,9587,-10733,-10350,-176
28690,14740,1349,8070,-13066,-4155,-96
28700,19238,2298,6202,-11119,2868,1628
28710,21945,3335,4791,-11146,4898,1780
28720,23569,4750,3167,-12242,6585,1655
28730,24427,6265,2702,-13852,7862,1149
28740,23963,8627,4307,-14562,4395,-296
28750,23058,8510,6083,-13294,149,-1075
28760,20386,7848,6691,-10814,-3774,-2017
28770,18042,7227,6395,-7592,-5791,-2623
28780,13614,8277,4820,-1305,-4254,-3192
28790,14702,4835,2363,3550,3130,473
28800,15830,3913,3049,4850,4313,1471
28810,18691,2866,4078,8146,5133,2922
28820,18951,2781,3801,10259,5096,2989
28830,18627,2334,3417,12084,4687,2979
28840,18352,1704,3041,13568,4493,3185
28850,16711,155,2646,15452,3312,3394
28860,16224,-1079,2971,15985,2261,3642
28870,15864,-1543,2784,16820,1626,3977
28880,14214,359,847,16701,-512,3331
28890,13208,1207,825,14984,-1056,3026
28900,12846,2246,1045,13348,-1033,3085
28910,12285,3485,786,11839,-972,2884
28920,11241,3446,2601,9348,-1070,2400
28930,11120,3742,2730,9148,-1227,2313
28940,11092,3964,2801,8974,-1595,2106
28950,11033,4824,2603,8337,-2120,1361
28960,11477,5312,2574,7836,-2148,1015
28970,11546,5884,2443,7272,-1949,590
28980,11975,6467,2942,6513,-1817,127
28990,12687,6231,3530,5177,-1442,-212
29000,13205,6004,4016,4919,-1203,-480
29010,13764,5874,4296,4992,-1162,-709
29020,14632,5426,5027,5668,-723,-825
29030,14754,4985,5355,6303,-522,-871
29040,14833,4145,5605,8136,-254,-971
29050,14920,3758,5802,9140,-19,-904
29060,14916,3469,5879,10198,177,-822
29070,14682,3029,5816,11282,261,-672
29080,15325,3019,5891,13120,75,-200
29090,16050,3030,6035,13789,99,78
29100,16707,3081,6219,14329,178,367
29110,18081,3477,6149,14539,464,989
29120,18473,3380,6674,13836,-265,958
29130,18667,3550,6367,12675,-2058,626
29140,18628,3398,6125,10467,-3967,250
29150,19275,1143,8054,3164,-8114,-921
29160,19523,-904,11391,-490,-7717,-1220
29170,20336,-3423,17101,-2789,-6595,-1346
29180,25622,241,15856,-2160,1073,-1011
29190,24810,3956,8871,-608,8194,4
29200,24820,6047,5158,-1202,11312,13
29210,24430,6299,4211,-3939,11207,-627
29220,19231,6865,1301,-10027,6570,-3521
29230,16687,6331,1167,-13312,4531,-4404
29240,14273,5756,1521,-15920,3115,-4953
29250,11621,5859,2156,-18034,174,-4638
29260,11300,6861,1341,-18040,-1523,-4448
29270,11688,7945,956,-18444,-3027,-4329
29280,14124,10355,1121,-20011,-5044,-3990
29290,14862,11593,2229,-20685,-5591,-3937
29300,15622,12069,4108,-20682,-5974,-3549
29310,15748,10608,6789,-16733,-5732,-2339
29320,15182,9274,6541,-13156,-4127,-1935
29330,13602,7933,7238,-9648,-1764,-1785
29340,12688,5094,7618,-2592,1308,-1384
29350,11483,4453,6636,1026,3247,-1034
29360,10816,4096,5863,3945,4761,-464
29370,10381,3599,5154,5811,5898,478
29380,10724,3308,4858,7798,5507,852
29390,10777,3299,4609,8073,5102,925
29400,10996,3244,4143,7705,4909,792
29410,12046,3012,3572,3541,4101,-22
29420,12125,2814,3264,198,3451,-716
29430,11975,2825,3575,-3134,2750,-1361
29440,11521,2862,2969,-5853,1757,-1844
29450,11340,3762,3382,-8822,-291,-2174
29460,11420,4260,3562,-9002,-886,-2180
29470,11353,4585,3065,-8484,-1487,-2045
29480,11582,4721,2589,-7295,-2499,-1445
29490,11683,4717,2563,-6477,-2743,-1097
29500,11984,4306,2409,-5613,-3088,-271
29510,12140,3888,2611,-4166,-3526,201
29520,12343,3294,3209,-3444,-3428,753
29530,12657,2700,3972,-2453,-3136,1365
29540,14261,1410,5784,580,-2330,2410
29550,14885,875,7071,2663,-1652,2668
29560,15660,307,8292,5384,-817,2910
29570,16883,-333,10090,11421,-313,3316
29580,18345,-642,11306,13864,-709,3374
29590,19135,-1570,15128,15888,-1978,2904
29600,18837,-2159,18457,19010,-4394,2032
29610,16125,2388,12073,20335,-12138,147
29620,17097,3109,11175,12517,-18204,-269
29630,18580,4393,10464,3283,-21916,-431
29640,18033,4782,7449,-3341,-18589,146
29650,17202,3908,3678,-11494,-3538,1822
29660,17649,4372,2035,-13553,2458,1755
29670,19282,4838,1064,-15475,7189,1579
29680,21138,7015,-632,-18857,13417,182
29690,23147,8030,1958,-20252,14617,-416
29700,22396,8110,7022,-19867,11253,-1334
29710,14866,7797,6686,-1829,-7941,-4035
29720,13125,8858,3135,3146,-4864,-3247
29730,12691,8788,1453,3496,-1173,-2614
29740,13364,7056,1547,2503,2047,-1701
29750,16244,4798,1737,1983,3831,19
29760,17572,4255,2870,2295,3986,746
29770,19150,3829,4013,3437,4022,1353
29780,19694,3534,5004,5412,4237,1619
29790,19176,3070,4542,11067,4114,1725
29800,18091,2108,4187,13556,4316,2082
29810,17851,118,4601,15585,4210,2841
29820,16271,-2677,4735,20601,2203,3823
29830,15584,-2478,3831,22874,1012,3907
29840,14209,-1361,2316,23750,-163,3729
29850,13659,-150,1501,21111,-1678,3591
29860,12940,635,1483,19269,-914,3573
29870,12144,1472,1476,17309,-444,3567
29880,12064,2099,1313,15145,-648,3399
29890,11658,3513,1090,10370,-885,2464
29900,10965,4247,807,7740,-1184,1980
29910,11559,4848,1091,5054,-2023,1579
29920,11123,6087,1981,980,-3139,180
29930,11854,5955,2896,-416,-3505,55
29940,12085,5914,3463,-1055,-3702,-361
29950,13071,6192,4039,-1444,-4188,-1348
29960,13463,6159,4494,-1484,-3742,-1532
29970,13955,6029,4999,-1308,-3259,-1583
29980,14220,5187,5852,368,-2501,-1656
29990,14011,4772,6038,1829,-2071,-1616
30000,14036,4378,6316,3376,-1684,-1442
30010,14616,3694,6749,5059,-1338,-815
30020,14672,3366,6783,8503,-602,-558
30030,14828,3197,6571,10035,-396,-392
30040,14852,3196,6268,11196,-77,-297
30050,15928,3251,5990,12181,511,101
30060,16815,3369,5747,12030,507,253
30070,17576,3489,5459,11335,248,185
30080,18476,3455,5183,9916,-143,-11
30090,19123,2749,5881,5640,-1130,-802
30100,19431,2105,5895,3434,-1883,-1158
30110,19858,1361,6787,1252,-2100,-1458
30120,22215,609,8408,-1490,-1036,-1569
30130,23628,625,8838,-1959,-77,-1395
30140,24398,1317,8752,-2145,937,-1283
30150,25085,2306,7511,-2502,1794,-986
30160,22936,4589,5175,-4279,4098,-911
30170,20598,4870,3952,-5468,3925,-1182
30180,15591,5507,1672,-8713,1663,-2442
30190,13527,5440,1525,-10787,802,-2874
30200,12150,5682,1821,-12458,17,-3148
30210,11535,7198,1580,-14618,-2312,-3355
30220,12234,8276,1962,-15514,-3221,-3270
30230,13050,9427,2992,-16140,-3867,-3063
30240,14247,10457,4416,-16072,-4330,-2718
30250,16478,11426,7764,-13431,-4259,-2021
30260,16742,10646,9411,-10563,-3721,-1720
30270,17175,8835,10619,-7057,-2928,-1516
30280,15843,5974,10165,-686,478,-1822
30290,14585,5701,8182,1197,2498,-2031
30300,13525,6316,5984,1935,4151,-2047
30310,12800,6838,3176,1133,4947,-2236
30320,11739,6271,1801,-4016,4594,-2871
30330,10506,5698,2445,-6579,4114,-3105
30340,10031,5275,2536,-8336,3135,-3137
30350,9546,4439,3599,-10062,1375,-2745
30360,9499,4639,3206,-10329,499,-2519
30370,9557,5096,2499,-10571,-441,-2443
30380,9857,5452,2026,-10946,-1229,-2363
30390,10413,5940,1539,-11606,-2217,-2502
30400,10631,5927,1821,-11689,-2412,-2547
30410,10949,6010,2322,-10706,-3008,-2455
30420,11071,5795,2378,-9825,-3344,-2263
30430,11387,5478,2402,-8752,-3390,-1889
30440,11593,5160,2276,-7676,-3206,-1531
30450,11411,4473,2054,-5933,-2823,-865
30460,11755,4066,2141,-5182,-2510,-244
30470,12075,3784,2217,-4455,-2002,312
30480,12337,3434,2562,-3832,-1326,875
30490,13371,2408,4078,-1951,-161,2301
30500,14084,2102,4728,-265,452,2942
30510,16395,1461,5564,1758,1139,3511
30520,16854,360,7067,6857,2967,3441
30530,17845,-340,8309,9522,2061,3649
30540,18721,-1638,10727,12446,304,3647
30550,20223,-6759,22965,20463,-6560,3365
30560,20436,-4616,19909,26114,-11192,2337
30570,18799,206,13572,25413,-15341,685
30580,20843,4802,11767,13156,-17432,337
30590,16140,4807,6935,-10469,-6608,987
30600,16441,4444,1348,-12195,-5648,873
30610,18771,3916,1166,-13752,-1701,1505
30620,22163,7196,7653,-17432,9384,-1057
30630,20075,6398,9147,-13753,-6795,-2494
30640,16658,7097,7075,-4262,-8253,-3262
30650,14133,8026,5508,-1264,-6192,-3370
30660,12327,8355,4377,-150,-3871,-3122
30670,13732,5882,2464,389,-136,-1117
30680,15407,5208,2124,1255,2306,123
30690,16509,4860,2605,1848,3485,726
30700,18429,3358,4800,4358,3612,2129
