timestamp, ax, ay, az, gx, gy, gz
0, 0, 0, 0, 0, 0, 0
10, -4981, -9108, 13650, 441, -466, -506
20, -4718, -8646, 12194, 14600, -11195, -13171
30, -5153, -9033, 12716, 27220, -25385, -23887
40, -5236, -8885, 12584, 898, -1390, -982
50, -5138, -9258, 12740, 140, -775, -444
60, -5157, -9598, 12911, -21, -660, -245
70, -4720, -9642, 12957, -99, -756, -109
80, -4633, -9677, 12982, -43, -614, -236
90, -4675, -9538, 12942, 24, -650, -322
100, -4454, -9532, 12905, 16, -676, -322
110, -4796, -9362, 12650, 57, -556, -409
120, -4624, -9375, 12865, 52, -697, -101
130, -4360, -9132, 12872, -4, -605, -181
140, -4546, -9171, 12692, -218, -583, -110
150, -4904, -9320, 12630, -332, -471, -143
160, -4945, -9918, 12741, -339, -386, -70
170, -4190, -9651, 13469, -602, 455, 676
180, -3766, -9280, 13419, -621, 623, 656
190, -4182, -8892, 13247, -556, 475, 332
200, -4346, -8779, 12843, -506, -18, -103
210, -4518, -9104, 12827, -1031, 76, -574
220, -4690, -9299, 12990, -1412, 289, -439
230, -4404, -9660, 12917, -1901, 18, 31
240, -5646, -9754, 12247, -1597, -172, -158
250, -5182, -9684, 11314, -1471, -25, -614
260, -5753, -8863, 10943, -2494, 199, -914
270, -5863, -8735, 10584, -3131, -259, -804
280, -6177, -9603, 10888, -3586, 460, -137
290, -4870, -10632, 12281, -4243, 3116, 1130
300, -4328, -10198, 12697, -4039, 2911, 664
310, -4592, -9029, 12624, -3847, 2842, 422
320, -4725, -8087, 11046, -3969, 2269, 606
330, -5394, -10041, 9851, -5983, 400, 2583
340, -3788, -11333, 12047, -8228, 3928, 3800
350, -10241, -10770, 14471, -8901, 8458, 5018
360, -6592, -12666, 11110, -4542, -1527, 347
370, -7032, -11622, 11631, -3758, -217, 678
380, -5283, -12526, 11333, -3393, 147, 1872
390, -6547, -12872, 12285, -3072, 770, 1949
400, -5810, -12114, 12442, -1371, 177, 1260
410, -6749, -9762, 10997, -774, -77, 596
420, -7285, -8902, 9606, -1127, -955, 285
430, -7723, -10050, 10077, -3521, -2033, 805
440, -7305, -11619, 11039, -4157, -2320, 1729
450, -5661, -12228, 11551, -4317, -2419, 2608
460, -5301, -11802, 11469, -2924, -1542, 2478
470, -5269, -11629, 10984, -2255, -1284, 2120
480, -5905, -11961, 11089, -1716, -889, 1764
490, -5814, -12703, 11092, -467, -178, 1278
500, -6736, -13004, 11085, 165, 25, 981
510, -7295, -13656, 10802, 805, -260, 830
520, -7360, -12932, 11296, 2462, 157, 1197
530, -6373, -12103, 10957, 3588, -756, 217
540, -6130, -11005, 11428, 4488, -1133, -1255
550, -7022, -11828, 11164, 4897, -2806, -2186
560, -5263, -11165, 10753, 5338, -4817, -3664
570, -5285, -10702, 11709, 4376, -3760, -3538
580, -4508, -10669, 11868, 3973, -2856, -3661
590, -5836, -10271, 11942, 3753, -885, -3828
600, -6744, -10383, 11602, 3579, -527, -3597
610, -6369, -10341, 11545, 3419, -564, -3373
620, -6499, -10617, 12106, 3143, -858, -3050
630, -6184, -10408, 12043, 3576, -2088, -3483
640, -5699, -10016, 12074, 3792, -2123, -3606
650, -4871, -9882, 12266, 3779, -1621, -3152
660, -4336, -9877, 12387, 3068, 316, -1522
670, -4710, -9592, 11868, 2786, 1008, -1159
680, -5549, -9333, 11339, 2369, 1344, -891
690, -6483, -9184, 10646, 1413, 764, -1045
700, -6162, -9225, 10461, 1234, -111, -1780
710, -5330, -9128, 10717, 869, -1176, -2662
720, -4812, -9970, 11207, 349, -906, -2211
730, -4829, -10560, 12061, -272, -631, -1483
740, -4661, -11257, 12263, -533, -394, -686
750, -4813, -11303, 12429, 448, 225, -792
760, -5113, -10814, 11785, 1084, -115, -1299
770, -5373, -10227, 11537, 1114, 58, -1322
780, -5716, -9691, 11192, 289, 458, -1061
790, -5463, -9506, 11177, -254, 507, -1008
800, -5422, -9354, 11462, -837, 838, -800
810, -6702, -11035, 11484, -1438, 128, -97
820, -6748, -11703, 11513, -1176, -728, -292
830, -6025, -12055, 11947, -871, -1052, -334
840, -4931, -11709, 12292, -416, -916, -414
850, -4546, -10594, 11835, 216, -195, -893
860, -5731, -10641, 11524, 75, 174, -924
870, -6242, -10773, 11237, -130, -45, -802
880, -4653, -10449, 11833, -1203, 1411, 373
890, -6356, -10503, 12695, -1779, 2744, 1492
900, -5684, -11296, 11724, -1171, 613, 812
910, -6663, -11707, 11673, -791, 720, 591
920, -5768, -11432, 11242, -54, 262, 536
930, -5639, -10957, 11167, 240, 116, 49
940, -5690, -10778, 11086, 262, -122, -369
950, -6156, -11352, 11880, -1042, -276, -507
960, -6903, -12364, 11341, -585, -989, -421
970, -6025, -10808, 9986, 100, -795, 417
980, -5484, -10006, 10062, -280, -170, 697
990, -4986, -9777, 10414, -740, 286, 690
1000, -4227, -9584, 10859, -1146, 299, 390
1010, -4467, -11640, 12029, -1381, -541, -743
1020, -4993, -13028, 12276, -981, -1090, -1122
1030, -5990, -13767, 12799, -268, -1297, -1247
1040, -5492, -12627, 12351, 1789, -935, -1146
1050, -5220, -11412, 11999, 2351, -1065, -1328
1060, -4587, -10213, 11710, 2475, -1367, -1593
1070, -5896, -9698, 11220, 2148, -1600, -1858
1080, -4638, -10231, 10196, 1062, -2393, -2021
1090, -5548, -11376, 11097, -259, 798, -929
1100, -13653, -8441, 14305, -904, 3511, 764
1110, -5247, -12329, 11158, 386, -1788, -957
1120, -5567, -11402, 12194, 590, 1469, -1219
1130, -3246, -10838, 11713, 566, -546, -876
1140, -5454, -10178, 11551, 521, -1766, -3010
1150, -5661, -10172, 11448, 146, -2379, -3251
1160, -5617, -10766, 11215, 4, -2869, -3039
1170, -4646, -12265, 11388, 332, -3256, -1749
1180, -4192, -12478, 11395, 576, -2739, -1307
1190, -3972, -12051, 11423, 841, -1984, -1172
1200, -4358, -11075, 11186, 1203, -1062, -1494
1210, -4307, -10721, 11095, 1037, -880, -1691
1220, -4824, -10858, 11118, 689, -789, -1912
1230, -6190, -11880, 11447, 308, -296, -1513
1240, -5758, -12012, 11787, 250, 93, -893
1250, -5140, -12092, 11939, 359, 403, -449
1260, -4913, -11606, 11715, 540, 719, -235
1270, -4829, -11999, 11934, 271, 2005, 128
1280, -4831, -12518, 12230, 132, 2777, 410
1290, -4738, -12715, 12852, 275, 3016, 358
1300, -4678, -9962, 12206, 1648, 2466, -956
1310, -5037, -12718, 13099, 2651, 416, -2301
1320, -6261, -13997, 13552, 3492, -685, -3233
1330, -6176, -12870, 13528, 4908, -2120, -3741
1340, -4853, -11649, 12265, 6771, -3435, -3912
1350, -6001, -11433, 11425, 7055, -3790, -4226
1360, -6599, -10962, 10906, 7019, -4224, -4097
1370, -5829, -9599, 10637, 6289, -4102, -3482
1380, -4979, -9008, 10654, 5759, -3890, -3274
1390, -3967, -8502, 10692, 5050, -3638, -3123
1400, -3438, -7738, 11061, 3049, -2432, -3175
1410, -3457, -8161, 11619, 2085, -1678, -2598
1420, -3564, -8976, 12207, 1446, -1170, -2062
1430, -4027, -10669, 13500, 1711, -1295, -1573
1440, -3946, -10880, 13829, 2494, -1807, -1956
1450, -3562, -10595, 13750, 3460, -2217, -2729
1460, -2845, -9298, 13236, 4766, -3080, -4111
1470, -2580, -8803, 13272, 4922, -3349, -4680
1480, -2557, -8738, 13204, 4910, -3074, -5029
1490, -2895, -8786, 13530, 3878, -2066, -4198
1500, -3092, -8759, 13549, 3582, -1644, -3826
1510, -3014, -8752, 13532, 3400, -1617, -3822
1520, -2851, -8687, 13522, 3358, -1867, -3946
1530, -1744, -8742, 14016, 3074, -1494, -4467
1540, -1699, -8707, 14322, 2862, -1354, -5051
1550, -2121, -9028, 14413, 2470, -1441, -5083
1560, -2398, -9567, 14685, 1779, -2337, -4353
1570, -2288, -9278, 14631, 1967, -2847, -4421
1580, -2422, -8501, 14481, 2267, -3596, -4966
1590, -2117, -7855, 14165, 2630, -4613, -5650
1600, -1415, -7531, 14162, 2677, -5036, -6044
1610, -758, -7353, 14163, 1994, -4436, -5407
1620, 1122, -6982, 15058, 610, -3979, -5857
1630, 146, -7388, 15244, 388, -2336, -6166
1640, -753, -8100, 14624, 367, -837, -5759
1650, -1319, -8597, 14431, 216, -901, -4824
1660, -1018, -8536, 14397, 704, -1619, -5448
1670, -1290, -8545, 14369, 1381, -1842, -6400
1680, -1417, -8319, 14028, 1770, -1885, -6932
1690, -1347, -7696, 13214, 855, -1392, -5871
1700, -1546, -7821, 13194, 187, -1352, -5279
1710, -1396, -8241, 13403, -300, -1617, -5108
1720, -1567, -8832, 13944, -425, -1939, -5173
1730, -378, -9771, 15019, 126, -2562, -4634
1740, 881, -9692, 15182, 459, -2401, -4379
1750, -1229, -9261, 13865, 841, -2124, -4715
1760, 3493, -8960, 14522, 245, -13075, -6506
1770, 416, -8412, 14039, -170, -3587, -5450
1780, 342, -8615, 13823, -465, 949, -3965
1790, 292, -8351, 13860, -966, 2741, -2697
1800, -700, -8615, 14508, -1425, 2324, -2287
1810, -946, -8655, 14322, -1229, 555, -2654
1820, 1446, -8124, 13850, -1010, -1108, -3566
1830, 384, -8417, 14428, -1706, 797, -3413
1840, 845, -8616, 15359, -2170, 283, -2825
1850, 557, -8053, 12812, -243, -2264, -5545
1860, 497, -7550, 14479, -877, -7270, -7339
1870, -125, -7927, 14209, -422, -2261, -6576
1880, 1266, -8037, 12958, -320, 1007, -5734
1890, 5655, -8916, 14839, -915, -6890, -5928
1900, 926, -9332, 17224, -1516, -63, -7858
1910, 2931, -8656, 15997, -20, -793, -8775
1920, 1299, -6693, 13290, 2193, -1849, -12435
1930, -55, -4960, 9739, 1899, -4232, -14184
1940, -952, -3834, 7046, -367, -5095, -14711
1950, 1701, -5744, 8988, -4199, -5046, -14788
1960, -504, -5178, 12154, -6226, -5873, -16471
1970, 435, -3837, 10512, -5212, -6087, -16607
1980, 1698, -2558, 9411, -5620, -6145, -17946
1990, 3814, -1672, 9498, -8146, -6506, -23432
2000, 2812, -1919, 9400, -8358, -6182, -25708
2010, 2084, -2288, 9220, -7611, -5407, -25739
2020, 4203, -3001, 9068, -6321, -4320, -23966
2030, 6034, -3657, 9461, -3993, -2831, -20681
2040, 7108, -3833, 9461, -2989, -3273, -21616
2050, 6739, -3242, 9155, -2342, -4201, -24009
2060, 4953, -1605, 9556, -2657, -5751, -29716
2070, 4972, -1239, 9272, -2985, -6734, -31915
2080, 8562, -1161, 7995, -4137, -8517, -32281
2090, 9194, -952, 7075, -4855, -8806, -30755
2100, 9909, 691, 5789, -5055, -8548, -28550
2110, 11508, 1729, 5727, -5470, -8495, -26793
2120, 13850, 1578, 7046, -6241, -9678, -28349
2130, 12748, 1024, 8163, -6139, -9289, -30095
2140, 11028, 1047, 8731, -5485, -7545, -30148
2150, 11727, 3431, 9540, -4542, -419, -23514
2160, 14698, 3965, 10304, -4510, 3785, -18529
2170, 17684, 3264, 10857, -3621, 7380, -14129
2180, 19644, 1810, 12047, -1501, 9888, -10115
2190, 21695, -206, 12831, 6019, 10486, -4471
2200, 22698, -1082, 12492, 8386, 8445, -4407
2210, 22184, -825, 12784, 8781, 6425, -6350
2220, 20289, -710, 13949, 6667, 1690, -15190
2230, 18959, -489, 13965, 5381, 786, -18536
2240, 17045, 751, 14254, 4417, 620, -20095
2250, 17025, 2159, 13262, 4344, 211, -20275
2260, 17629, 2116, 13571, 5568, -9, -18560
2270, 17157, 2422, 13768, 6043, -665, -18211
2280, 16948, 3016, 13097, 6620, -1379, -17873
2290, 16730, 2728, 14308, 6695, -709, -16560
2300, 17076, 3140, 13831, 6782, -153, -16175
2310, 17376, 3962, 14057, 6682, 2109, -15253
2320, 17720, 3928, 13903, 7120, 3099, -14490
2330, 18515, 3904, 12898, 7285, 3249, -13701
2340, 18755, 3511, 12611, 6616, 2492, -13451
2350, 18389, 3030, 12720, 4954, -1063, -13859
2360, 17840, 3049, 12447, 4507, -2492, -13648
2370, 17336, 3012, 12881, 4158, -3399, -13190
2380, 16762, 3321, 13064, 4035, -4167, -12867
2390, 16112, 3273, 13149, 3704, -3873, -12795
2400, 15628, 3515, 12972, 3128, -3766, -12738
2410, 15372, 4040, 12670, 2349, -3590, -12444
2420, 15818, 3962, 12033, 712, -2719, -10350
2430, 16340, 3948, 11718, 41, -2838, -9426
2440, 16122, 4414, 11825, -738, -3557, -9469
2450, 14361, 6083, 12141, -1563, -6337, -11844
2460, 13326, 6743, 11545, -1516, -7118, -12819
2470, 12586, 6785, 11363, -1629, -6822, -12899
2480, 12462, 6765, 11358, -1763, -5805, -12124
2490, 12522, 7081, 11475, -1806, -3424, -10149
2500, 12516, 7835, 11691, -1867, -2636, -9641
2510, 13372, 8149, 11811, -1944, -2000, -9124
2520, 14631, 7329, 11890, -994, -480, -7933
2530, 14577, 6962, 11391, -218, -313, -7486
2540, 13759, 7472, 10798, -240, -867, -7378
2550, 13418, 7841, 10719, -868, -1080, -7645
2560, 13435, 8223, 10659, -1541, -1279, -7943
2570, 13362, 8597, 11503, -2173, -1067, -8024
2580, 13796, 8552, 11601, -2236, 381, -6760
2590, 14336, 8202, 11549, -2063, 1107, -5822
2600, 14644, 7973, 11471, -2314, 1409, -5170
2610, 14280, 7901, 11933, -3717, 270, -5699
2620, 14106, 7681, 11597, -4089, -682, -6461
2630, 13357, 7073, 11137, -4045, -1396, -7229
2640, 10842, 5389, 9860, -2635, -2055, -7396
2650, 9383, 4889, 9133, -1600, -1988, -6426
2660, 8042, 4832, 8810, -906, -1990, -4998
2670, 7349, 5636, 8661, -702, -2237, -3632
2680, 6440, 6931, 9561, -1634, -2775, -2766
2690, 7131, 7369, 9929, -2072, -2400, -2389
2700, 7033, 7464, 10214, -2049, -1436, -1949
2710, 8160, 7500, 10141, -781, 1283, 328
2720, 8268, 7828, 10107, -152, 2188, 1358
2730, 8707, 8233, 10538, 312, 2364, 1854
2740, 9063, 8421, 11017, 925, 2098, 1823
2750, 9490, 8150, 11111, 2434, 1836, 1636
2760, 9447, 5650, 9619, 1694, 1377, 2984
2770, 9355, 5445, 9590, 645, 608, 2593
2780, 8963, 5480, 9578, -930, -1132, 1725
2790, 8644, 5629, 9545, -1313, -1552, 1531
2800, 8106, 6036, 9430, -1397, -1663, 1424
2810, 8300, 6097, 9509, -1394, -1674, 1455
2820, 8915, 5694, 9751, -1093, -1039, 1921
2830, 9375, 5382, 9979, -659, -592, 2111
2840, 9634, 5099, 9907, 22, -295, 2206
2850, 9898, 5407, 9538, 1314, 265, 2499
2860, 9852, 5343, 9911, 1716, 724, 2717
2870, 9751, 5360, 10254, 2325, 1124, 2874
2880, 9453, 5127, 10562, 2991, 1480, 2971
2890, 10552, 4389, 11216, 4072, 2338, 4266
2900, 11269, 3852, 11515, 4481, 3167, 5302
2910, 11455, 3439, 11540, 4653, 3877, 6183
2920, 13644, 3968, 12106, 3577, 3573, 6214
2930, 13469, 4170, 12390, 2730, 3167, 4761
2940, 12490, 3765, 11853, 2380, 2216, 3176
2950, 11352, 3575, 11423, 2143, 1031, 2438
2960, 10111, 4521, 11612, 438, -442, 4579
2970, 10779, 5659, 12910, -362, -1048, 5940
2980, 12189, 7163, 13738, -217, -1666, 6378
2990, 11850, 8345, 13708, 1350, 622, 6359
3000, 11372, 8474, 13848, 2023, 2518, 7099
3010, 11874, 8772, 14501, 2868, 5016, 9914
3020, 12467, 9270, 15025, 2946, 5232, 10887
3030, 13196, 9703, 15413, 2553, 4999, 11317
3040, 13868, 10061, 15810, 1872, 4476, 11198
3050, 14733, 10444, 15935, 563, 2976, 10045
3060, 14847, 10266, 15606, 571, 2707, 9459
3070, 14535, 9923, 15229, 908, 2865, 9045
3080, 14907, 8540, 14171, 692, 2790, 8397
3090, 14687, 7790, 13784, -12, 2715, 7807
3100, 14366, 7167, 13224, -616, 2415, 7239
3110, 14001, 6983, 12473, -979, 1959, 6955
3120, 13514, 7935, 11212, -1570, 1332, 7448
3130, 12780, 8724, 10956, -1757, 976, 7522
3140, 12008, 9410, 10751, -1633, 713, 7559
3150, 9892, 11259, 10784, -1145, 719, 7563
3160, 9621, 11547, 10570, 1086, 1572, 7541
3170, 9723, 11032, 10458, 2664, 2692, 7890
3180, 10218, 10136, 10664, 4107, 3854, 8538
3190, 12229, 8729, 10835, 5195, 4751, 9924
3200, 12936, 7904, 10907, 6106, 6045, 10618
3210, 13235, 7517, 10894, 5766, 6241, 11122
3220, 13438, 7641, 10695, 4884, 5913, 11150
3230, 12674, 7858, 9738, 2241, 4109, 9133
3240, 11571, 7846, 8912, 1000, 3075, 7722
3250, 9455, 7724, 7359, -724, 1377, 5812
3260, 8615, 7717, 6842, -1260, 818, 5429
3270, 8242, 7509, 6897, -1698, 306, 5166
3280, 8302, 7338, 7140, -1867, -155, 4950
3290, 8485, 7018, 7548, -1331, -450, 4949
3300, 8814, 6575, 7663, -854, -170, 5421
3310, 9643, 6084, 7709, -499, 273, 6167
3320, 10065, 5779, 7531, -474, 539, 6352
3330, 9112, 6659, 7305, -621, -74, 5429
3340, 8445, 7388, 7192, -812, -820, 4595
3350, 8251, 7783, 7315, -838, -1246, 4099
3360, 8652, 7762, 8073, 25, -1076, 4012
3370, 9010, 7237, 8459, 799, -686, 4344
3380, 9525, 6407, 8777, 1417, -310, 4736
3390, 9914, 5157, 9456, 1271, -394, 4438
3400, 9932, 5589, 9347, 535, -930, 3589
3410, 9599, 6063, 9372, -480, -1454, 2491
3420, 9423, 6756, 9670, -1330, -1874, 1480
3430, 9422, 7581, 10065, -1183, -1938, 189
3440, 9353, 7514, 10074, -401, -1542, -52
3450, 9542, 7204, 10149, 354, -1146, -96
3460, 10425, 6580, 11061, 874, -898, -263
3470, 10729, 6655, 11512, 804, -936, -430
3480, 10973, 6855, 11738, 588, -1095, -668
3490, 11738, 6862, 12791, -332, -1296, -1330
3500, 12018, 6908, 12775, -162, -1355, -1904
3510, 12122, 6807, 12336, 101, -1450, -2709
3520, 11434, 6227, 12196, -386, -1161, -4203
3530, 11523, 6903, 12417, -724, -1295, -4506
3540, 11654, 8049, 11960, -1137, -1507, -4813
3550, 12337, 8171, 13473, -2101, -1218, -5310
3560, 12733, 7909, 14050, -1500, -859, -5377
3570, 13330, 7805, 13892, -529, -778, -5426
3580, 14212, 6366, 13822, -34, -728, -6274
3590, 13578, 5611, 13754, 9, -798, -7242
3600, 12709, 5200, 13304, 97, -1208, -8243
3610, 12266, 5086, 13001, -78, -1648, -8808
3620, 12572, 5670, 13434, -623, -1779, -8013
3630, 13113, 5719, 13876, -701, -1615, -7104
3640, 13352, 5547, 14014, -544, -1422, -6383
3650, 13234, 5680, 14025, -4, -1207, -5768
3660, 13197, 5435, 13811, 344, -838, -5420
3670, 12998, 5056, 13479, 1009, -382, -4988
3680, 12582, 3927, 12458, 2429, -165, -4141
3690, 12026, 3077, 11935, 2923, -465, -4079
3700, 11149, 2166, 11318, 3188, -1110, -4261
3710, 10078, 1515, 10537, 3154, -2035, -4428
3720, 7764, 3346, 9164, 747, -5156, -3702
3730, 7403, 3848, 8799, 644, -5212, -3890
3740, 6999, 4426, 9068, 716, -4660, -4357
3750, 6892, 4455, 9230, 1200, -4163, -4587
3760, 6646, 4479, 9236, 1714, -3550, -4732
3770, 6700, 4912, 9890, 1982, -1997, -4208
3780, 7314, 5154, 10484, 1943, -1228, -3718
3790, 8206, 5291, 10961, 2032, -479, -3269
3800, 8590, 5335, 10791, 2402, 308, -3019
3810, 9254, 5163, 10418, 2951, 1258, -3105
3820, 9694, 5114, 10255, 2860, 1163, -3520
3830, 10046, 5146, 10295, 2641, 934, -4067
3840, 10585, 5211, 10980, 2410, 775, -4485
3850, 11003, 5382, 11429, 2537, 797, -4250
3860, 11403, 5575, 11875, 2841, 884, -3894
3870, 12312, 5098, 12325, 3313, 1281, -2787
3880, 12665, 4692, 12430, 3192, 1239, -2558
3890, 12784, 4444, 12478, 2797, 853, -2793
3900, 12868, 4430, 12482, 2302, 229, -3282
3910, 12825, 4579, 12770, 1617, -792, -3857
3920, 12862, 4500, 13024, 1511, -942, -3663
3930, 12722, 4463, 13395, 1526, -807, -3133
3940, 13247, 4577, 14183, 1515, -35, -1171
3950, 13703, 4350, 14424, 1490, 404, -424
3960, 13611, 4290, 14434, 1437, 452, -359
3970, 14765, 5696, 14853, 438, -746, -989
3980, 15244, 5982, 15471, -232, -1041, -1371
3990, 15135, 6096, 16139, -335, -1311, -1842
4000, 14409, 5628, 15968, 969, -1289, -1404
4010, 14332, 5467, 15714, 1467, -866, -313
4020, 14551, 5130, 15547, 1619, -311, 1016
4030, 14655, 4907, 15323, 1582, 64, 2091
4040, 14233, 5003, 14530, 1303, -135, 3062
4050, 13925, 5267, 14126, 886, -399, 3502
4060, 13681, 5678, 13908, 86, -786, 3794
4070, 12559, 7070, 13451, -1893, -2051, 2921
4080, 11867, 8093, 13596, -2452, -2396, 2452
4090, 11393, 8914, 13632, -2305, -2368, 2256
4100, 10661, 8823, 13353, -1525, -438, 3552
4110, 10750, 8095, 12795, 986, 1089, 5021
4120, 11222, 7099, 12143, 1770, 2332, 6392
4130, 11829, 5945, 11465, 1812, 3025, 7093
4140, 11559, 4701, 10220, 91, 2586, 6080
4150, 11215, 4580, 9611, -1162, 1951, 5161
4160, 10866, 4744, 9247, -2203, 1522, 4504
4170, 10652, 5367, 9066, -2802, 1364, 4306
4180, 11340, 6089, 8821, -2827, 1732, 5531
4190, 11787, 5750, 8543, -2262, 2286, 6697
4200, 12137, 4703, 7794, -1165, 2885, 8591
4210, 11988, 4215, 7911, -1253, 2476, 8895
4220, 11650, 4170, 7901, -1579, 1563, 8452
4230, 11025, 4272, 7786, -2004, 598, 7616
4240, 10401, 5138, 8129, -2700, -238, 6787
4250, 10648, 5366, 8308, -2675, -90, 6972
4260, 10620, 5356, 8357, -2322, 330, 7238
4270, 10534, 5123, 7879, -1727, 1028, 7995
4280, 10641, 4670, 7813, -691, 1356, 8534
4290, 10800, 4238, 7915, -485, 1378, 8966
4300, 10866, 4162, 8126, -369, 1241, 9164
4310, 10124, 4893, 9106, -450, 885, 8613
4320, 10456, 5540, 9696, -574, 683, 8217
4330, 10630, 5959, 10104, -539, 796, 7782
4340, 10455, 5785, 10577, -311, 1355, 7031
4350, 10673, 5509, 10321, 385, 1606, 6795
4360, 11053, 5162, 10207, 221, 1496, 6415
4370, 11049, 4799, 10337, -289, 1199, 5854
4380, 10843, 5067, 10552, -1109, 393, 4745
4390, 10838, 5621, 10868, -1154, 219, 4355
4400, 10979, 6005, 11295, -1020, 342, 4228
4410, 11667, 6196, 12111, -555, 873, 4313
4420, 12076, 6129, 12227, -602, 907, 4045
4430, 12390, 6143, 12375, -1054, 684, 3388
4440, 12296, 5861, 12260, -2350, -32, 1589
4450, 11637, 5675, 11932, -2640, -314, 833
4460, 11293, 5637, 11759, -2661, -535, 500
4470, 11505, 5999, 12456, -2419, -685, 1121
4480, 11695, 6577, 12906, -2113, -741, 1681
4490, 11810, 7251, 13282, -1791, -942, 1836
4500, 10917, 8045, 13723, -1676, -1639, 531
4510, 10313, 8803, 13940, -2079, -1955, -551
4520, 10081, 9165, 14330, -2800, -2105, -1825
4530, 9811, 8447, 14079, -3249, -2005, -3374
4540, 9277, 7507, 13381, -2797, -1403, -5915
4550, 9837, 6977, 12772, -2547, -1243, -6169
4560, 10581, 6946, 12686, -2570, -1175, -6045
4570, 11036, 7677, 13265, -2327, -1288, -6163
4580, 10701, 8052, 13341, -1872, -1213, -6519
4590, 10619, 8150, 13365, -1399, -982, -6940
4600, 10961, 7656, 13150, 314, 171, -6675
4610, 11088, 7060, 12795, 1688, 834, -5995
4620, 11303, 6208, 12345, 3037, 1339, -5229
4630, 11270, 5022, 11896, 4174, 1483, -4741
4640, 10586, 2611, 10829, 5436, 511, -4769
4650, 10024, 1675, 10589, 5440, -362, -4858
4660, 9547, 1005, 10503, 5140, -1251, -4691
4670, 8025, 1150, 10597, 1596, -3643, -4937
4680, 8041, 1655, 10423, 612, -3691, -5341
4690, 8230, 2106, 10275, -141, -3529, -5625
4700, 8483, 2548, 10157, -563, -3205, -5745
4710, 9343, 2763, 10016, -799, -2347, -5848
4720, 9413, 2698, 10136, -885, -1883, -5920
4730, 9559, 2763, 10318, -981, -1805, -6249
4740, 9661, 2693, 10749, -902, -2197, -7409
4750, 9528, 2941, 10565, -454, -2232, -7814
4760, 9253, 3172, 10348, -51, -2158, -7849
4770, 8979, 3108, 10683, 240, -1745, -7533
4780, 9512, 3083, 10697, 928, -873, -6029
4790, 9841, 3037, 10894, 1271, -566, -5429
4800, 10220, 2931, 11241, 1601, -340, -4866
4810, 11097, 2827, 12131, 2006, -250, -3933
4820, 11739, 2749, 12604, 2110, -437, -3710
4830, 12248, 2582, 13058, 2221, -682, -3824
4840, 11722, 2330, 13467, 2293, -956, -4754
4850, 11590, 2210, 13495, 2216, -1465, -4810
4860, 11724, 2087, 13606, 2014, -1479, -4690
4870, 11940, 1894, 13782, 1758, -1366, -4448
4880, 12358, 1456, 13927, 1029, -1373, -4018
4890, 12451, 1529, 14034, 320, -1616, -4068
4900, 12975, 2423, 14420, -858, -2228, -4325
4910, 13176, 2651, 14526, -848, -2244, -4220
4920, 13529, 2861, 14496, -489, -2167, -3911
4930, 13946, 2821, 14528, -100, -2168, -3530
4940, 13773, 3292, 14817, 200, -2570, -3158
4950, 13973, 3918, 14906, 128, -2778, -2999
4960, 13437, 4442, 15223, -40, -2850, -3094
4970, 12986, 5169, 14860, 457, -2480, -2814
4980, 12837, 4746, 15197, 790, -1546, -1815
4990, 13329, 4482, 15513, 1425, -877, -610
5000, 13560, 4345, 14979, 2242, -552, 375
5010, 13218, 5049, 15052, 2343, -761, 1245
5020, 13311, 5649, 15199, 1701, -1253, 1257
5030, 13442, 5931, 15249, 1271, -1579, 1087
5040, 13606, 5964, 15046, 936, -1503, 976
5050, 13820, 5840, 14940, 776, -1136, 1191
5060, 14022, 5601, 14803, 692, -627, 1568
5070, 14213, 5336, 14581, 759, 50, 2078
5080, 13688, 4395, 13460, 1230, 1757, 2935
5090, 13261, 3700, 12527, 1344, 2605, 3452
5100, 12943, 3109, 11595, 1241, 3196, 4075
5110, 13006, 2504, 10149, 475, 3199, 4984
5120, 13124, 2439, 9736, 37, 2785, 5122
5130, 13171, 2580, 9370, -245, 2313, 5140
5140, 12590, 3068, 8906, -34, 1516, 5365
5150, 12456, 3121, 8873, 166, 1350, 5968
5160, 12782, 2749, 8944, 500, 1369, 6828
5170, 12470, 2423, 8977, 1143, 1569, 8420
5180, 12139, 2251, 8982, 1176, 1473, 8807
5190, 11937, 2344, 8945, 1006, 1158, 8939
5200, 11518, 2814, 9081, 137, 446, 8452
5210, 11183, 3235, 9134, -242, 122, 8032
5220, 11171, 3638, 9109, -508, -45, 7766
5230, 10630, 3938, 9419, -257, 397, 7825
5240, 10569, 3948, 9430, 185, 648, 8133
5250, 10574, 3729, 9480, 561, 980, 8593
5260, 10518, 3441, 9585, 717, 1322, 9054
5270, 10836, 3206, 9777, 127, 1228, 8935
5280, 10759, 3566, 9908, -455, 876, 8124
5290, 10688, 4055, 10036, -1092, 479, 7024
5300, 10551, 4903, 10196, -1824, 178, 5032
5310, 10483, 5159, 10312, -1795, 303, 4460
5320, 10569, 5234, 10268, -1460, 530, 4244
5330, 10673, 4921, 10192, -984, 989, 4477
5340, 11035, 4079, 10123, -240, 1652, 5260
5350, 11366, 3841, 10106, -246, 1451, 5160
5360, 11459, 3689, 10360, -527, 1024, 4628
5370, 11323, 3974, 10787, -921, 465, 3846
5380, 11326, 4281, 10945, -1537, -592, 2405
5390, 11278, 4576, 11116, -1640, -701, 1875
5400, 11186, 4380, 11375, -1482, -117, 1389
5410, 11394, 4058, 11083, -1319, 193, 1328
5420, 11687, 3760, 10876, -1345, 219, 1175
5430, 12186, 3522, 11019, -1502, -313, 1183
5440, 12671, 3728, 11499, -1652, -888, 1331
5450, 12815, 4212, 12133, -1887, -1604, 1224
5460, 12765, 5000, 12661, -2092, -2383, 790
5470, 12688, 6835, 13715, -2670, -3124, -147
5480, 13164, 7813, 14560, -3167, -2878, -533
5490, 13333, 8444, 14985, -3396, -2382, -1315
5500, 12116, 7927, 14088, -2696, -1231, -3681
5510, 11830, 7255, 13100, -2422, -822, -4526
5520, 12028, 6494, 12686, -2655, -563, -5021
5530, 12300, 6253, 12669, -2913, -481, -5358
5540, 12281, 6573, 12491, -2401, -625, -5909
5550, 11982, 6619, 12300, -1577, -485, -5868
5560, 11362, 6548, 12210, -570, -252, -5623
5570, 10661, 6182, 11960, 1651, 58, -4242
5580, 10259, 5617, 11733, 4114, 632, -2587
5590, 10051, 5069, 11530, 5124, 818, -2219
5600, 9875, 4284, 11282, 5833, 774, -2225
5610, 9704, 1155, 11645, 5944, -1136, -1994
5620, 9545, 1200, 11461, 4633, -2611, -2651
5630, 9224, 1452, 11296, 3501, -3239, -3490
5640, 8830, 1825, 11180, 2227, -3477, -4220
5650, 8670, 2365, 11163, 1085, -3442, -4746
5660, 8867, 3614, 10969, -184, -2719, -5343
5670, 9218, 4101, 10826, -158, -2123, -5347
5680, 9518, 4391, 10674, 179, -1361, -5153
5690, 10006, 4080, 10372, 1351, 61, -4487
5700, 10306, 3865, 10338, 1890, 484, -4146
5710, 10503, 3659, 10336, 2222, 748, -3997
5720, 10494, 3554, 10334, 2409, 883, -4029
5730, 10651, 3686, 10334, 2479, 669, -4453
5740, 10598, 3760, 10335, 2610, 500, -4688
5750, 10597, 3728, 10425, 2963, 380, -4721
5760, 10768, 3392, 10674, 4213, 326, -4078
5770, 10983, 3072, 10919, 4815, 348, -3525
5780, 11234, 2666, 11325, 5313, 399, -2925
5790, 11525, 2017, 12179, 5646, 362, -2106
5800, 11499, 1766, 12574, 5665, 38, -1975
5810, 11538, 1504, 13039, 5469, -102, -1908
5820, 11771, 1202, 13322, 5298, -228, -1946
5830, 11841, 534, 13303, 4666, -443, -2197
5840, 12066, 305, 13311, 4136, -571, -2167
5850, 12243, 115, 13214, 2605, -1121, -2435
5860, 12134, 233, 13182, 1704, -1676, -2801
5870, 12017, 535, 13141, 935, -2265, -3162
5880, 11944, 963, 13219, 393, -2655, -3324
5890, 12057, 1543, 13478, 55, -2587, -2787
5900, 12334, 1648, 13659, 97, -2205, -2284
5910, 12680, 1861, 13685, 123, -1892, -2028
5920, 13377, 2930, 13798, -415, -1778, -1949
5930, 13714, 3625, 13948, -818, -1910, -1975
5940, 13736, 4140, 14066, -842, -2082, -2061
5950, 13612, 4648, 14045, 242, -2126, -1475
5960, 13834, 4800, 14199, 798, -1910, -744
5970, 14080, 4835, 14493, 1251, -1586, -65
5980, 14051, 4781, 14555, 1627, -1232, 344
5990, 13901, 5012, 14447, 2403, -561, 1131
6000, 14155, 4936, 14513, 2832, -103, 1901
6010, 14330, 4709, 14463, 3247, 338, 2780
6020, 14196, 4257, 14215, 2896, 533, 3663
6030, 13965, 4578, 13954, 2109, 206, 3342
6040, 13553, 5136, 13744, 1172, -181, 2617
6050, 13191, 5814, 13594, 428, -392, 1790
6060, 12171, 6033, 13029, 296, 436, 1112
6070, 11937, 5700, 12600, 783, 1217, 1528
6080, 12093, 5278, 12143, 1313, 2072, 2348
6090, 12648, 4322, 11712, 1765, 3154, 3796
6100, 12882, 4083, 11600, 1604, 3089, 3991
6110, 10944, 4089, 11860, 664, 2295, 3591
6120, 13343, 3120, 11020, 118, 1848, 3248
6130, 12587, 3197, 10159, -485, 1802, 2769
6140, 11725, 3254, 9343, -1180, 568, 2343
6150, 11648, 3405, 9004, -1192, 331, 2668
6160, 11265, 3448, 8862, -989, 300, 3277
6170, 11028, 3478, 8876, -605, 302, 4089
6180, 10959, 3816, 9403, 426, 758, 5976
6190, 10506, 3722, 9814, 948, 1370, 6789
6200, 10253, 3548, 9968, 1400, 1876, 7373
6210, 10466, 3385, 9676, 1584, 2385, 7437
6220, 10729, 3264, 9511, 804, 2289, 6869
6230, 10719, 3167, 9331, 188, 1852, 5953
6240, 10652, 3377, 9046, -393, 1180, 4922
6250, 10109, 3949, 8799, -1140, 97, 3625
6260, 9879, 4270, 8866, -1087, -88, 3658
6270, 10002, 4368, 8970, -847, -84, 4048
6280, 10468, 3940, 9511, -71, 349, 5063
6290, 10686, 3717, 9735, 209, 555, 5363
6300, 10913, 3576, 10015, 182, 646, 5368
6310, 11001, 3695, 10154, -19, 544, 4930
6320, 10833, 3914, 10342, -779, 242, 3393
6330, 11005, 4074, 10409, -1113, 224, 2871
6340, 11611, 4307, 10340, -1258, 461, 2431
6350, 11703, 4371, 10258, -1206, 483, 2145
6360, 11748, 4227, 10144, -1140, 380, 1805
6370, 11837, 3909, 10064, -1164, 99, 1291
6380, 11819, 3910, 10244, -1403, -216, 864
6390, 11720, 4046, 10497, -1645, -584, 348
6400, 11554, 4438, 10688, -1799, -828, -120
6410, 11534, 5236, 11257, -1787, -962, -859
6420, 11365, 5644, 11343, -1403, -874, -1178
6430, 11473, 5821, 11449, -1037, -751, -1315
6440, 11898, 5867, 11761, -300, -351, -1411
6450, 12074, 6189, 12060, -37, -405, -1639
6460, 12632, 6662, 12478, 26, -473, -1858
6470, 12932, 6617, 13436, -218, -397, -2768
6480, 12804, 6827, 13572, -411, -601, -3589
6490, 12939, 7218, 13712, -776, -867, -4431
6500, 12525, 7288, 13731, -1248, -969, -5462
6510, 10326, 8424, 13038, -1754, -1462, -8566
6520, 9350, 8587, 12381, -1931, -1688, -10160
6530, 9018, 8405, 12076, -1728, -1458, -10878
6540, 10262, 7164, 12330, 217, 312, -9052
6550, 11219, 6571, 12475, 1265, 1118, -7580
6560, 11759, 5990, 12722, 1896, 1565, -6559
6570, 11197, 5732, 12712, 536, 958, -7426
6580, 11068, 5497, 12359, 427, 849, -7578
6590, 11118, 4498, 11280, 734, 208, -7462
6600, 10851, 3979, 10694, 732, -388, -7365
6610, 10337, 3695, 10221, 521, -1260, -7459
6620, 9821, 3527, 9936, 127, -2203, -7635
6630, 8853, 3586, 9915, -324, -3396, -7781
6640, 8779, 3602, 10031, -265, -3619, -7629
6650, 8723, 3502, 10241, -126, -3486, -7274
6660, 9079, 3616, 10413, 192, -2924, -6356
6670, 9378, 3718, 10406, 189, -2769, -6192
6680, 9598, 3808, 10521, 81, -2682, -6267
6690, 9813, 3783, 10488, 57, -2675, -6335
6700, 10063, 3572, 10545, 361, -2854, -6009
6710, 10286, 3532, 10708, 529, -2977, -5734
6720, 10480, 3291, 11031, 670, -2979, -5542
6730, 10193, 2830, 11350, 626, -2959, -5716
6740, 9899, 3001, 11386, 343, -3036, -6009
6750, 9876, 3194, 11506, -5, -2971, -6226
6760, 10069, 3253, 11915, -93, -2341, -5801
6770, 10494, 3177, 12247, 330, -1964, -5166
6780, 10539, 2954, 12565, 889, -1604, -4638
6790, 10401, 2530, 12749, 1459, -1376, -4142
6800, 10794, 1861, 12799, 1736, -975, -3122
6810, 11008, 1602, 12998, 1240, -1013, -3103
6820, 11185, 1529, 13399, -239, -1766, -3971
6830, 11131, 1850, 13478, -877, -2203, -4383
6840, 11061, 2305, 13585, -1377, -2487, -4543
6850, 11414, 3477, 13884, -1672, -2553, -4388
6860, 11695, 3749, 14127, -1424, -2049, -3562
6870, 11756, 3684, 14264, -938, -1669, -3222
6880, 11802, 3595, 14300, -445, -1429, -2893
6890, 11924, 3576, 14742, -160, -983, -2161
6900, 12287, 3521, 15020, -90, -838, -1757
6910, 12630, 3537, 15223, -82, -761, -1427
6920, 13934, 4299, 15693, -711, -904, -1104
6930, 14083, 4772, 15918, -1113, -1031, -1422
6940, 13948, 5158, 15953, -1263, -1265, -1899
6950, 13629, 5313, 15816, -1219, -1512, -2212
6960, 13145, 5199, 15843, -938, -1265, -1727
6970, 13235, 5000, 15849, -683, -872, -1001
6980, 13229, 4649, 15709, -414, -419, -300
6990, 13428, 3750, 14984, -379, 85, 751
7000, 13556, 3677, 14752, -911, 46, 1082
7010, 13497, 4071, 14572, -1691, -180, 1210
7020, 13070, 5776, 13881, -3074, -789, 1091
7030, 13031, 6504, 13503, -3353, -956, 1005
7040, 12769, 7156, 13288, -3297, -845, 1015
7050, 12350, 7608, 13016, -1690, 292, 2219
7060, 12299, 7242, 12849, -355, 1263, 3479
7070, 12574, 6716, 12566, 901, 2199, 4882
7080, 12938, 5050, 12192, 1659, 3039, 6228
7090, 12449, 4363, 11837, 1288, 2917, 5967
7100, 11825, 3808, 11396, 582, 2614, 5516
7110, 11005, 3768, 10566, -1105, 1916, 4961
7120, 10942, 4008, 10269, -1702, 1830, 5031
7130, 10758, 4249, 10054, -1996, 1988, 5272
7140, 10781, 4472, 9839, -2019, 2171, 5616
7150, 11182, 4276, 9357, -1871, 2396, 6551
7160, 11377, 4073, 9287, -1789, 2286, 7040
7170, 11645, 4009, 9347, -1707, 1915, 7356
7180, 11245, 4158, 9223, -1567, 732, 6929
7190, 10774, 4331, 9064, -1644, 55, 6430
7200, 10383, 4520, 8976, -1838, -521, 5911
7210, 9845, 4592, 8990, -1956, -912, 5417
7220, 9149, 4916, 8984, -1674, -776, 5329
7230, 9252, 5025, 9073, -1149, -176, 5902
7240, 9572, 4696, 9519, -349, 698, 6623
7250, 9327, 4684, 9014, 695, 1601, 7202
7260, 9937, 4288, 9104, 1272, 2172, 7635
7270, 10145, 4439, 9476, 961, 1657, 6646
7280, 9300, 4914, 9683, 465, 160, 3872
7290, 8850, 5330, 9681, 95, -317, 2925
7300, 8563, 5606, 9951, -287, -416, 2390
7310, 8222, 6060, 9954, -383, -359, 2117
7320, 8608, 6081, 10056, 198, 489, 2460
7330, 9194, 5697, 10321, 865, 1223, 2842
7340, 9535, 5425, 10440, 1691, 1698, 2919
7350, 10223, 5008, 10809, 2491, 1475, 2589
7360, 10548, 5052, 11576, 2183, 852, 2109
7370, 10520, 5264, 12345, 1821, 153, 1384
7380, 10649, 5484, 12705, 1616, -511, 602
7390, 9916, 5788, 12985, 1242, -1018, -909
7400, 9758, 5688, 13134, 1102, -996, -1212
7410, 10391, 5533, 13203, 1150, -918, -1083
7420, 11668, 5981, 13750, 1139, -872, -1105
7430, 11698, 6425, 13761, 1078, -1249, -1685
7440, 11505, 6759, 13697, 988, -1762, -2458
7450, 11255, 6853, 13847, 1006, -2276, -3176
7460, 10137, 7034, 14146, 1317, -2922, -4061
7470, 9705, 7482, 14194, 1190, -2988, -4313
7480, 9279, 8098, 14050, 965, -2837, -4706
7490, 9501, 8573, 13813, 1279, -1760, -5438
7500, 10288, 8107, 13762, 1854, -998, -5633
7510, 12318, 6901, 13841, 1675, -817, -6727
7520, 11997, 7322, 12894, 1420, -1026, -6841
7530, 11584, 7470, 12732, 776, -1111, -6790
7540, 10302, 7244, 12481, 682, -428, -5991
7550, 10391, 6998, 12163, 1270, -201, -5377
7560, 10415, 6524, 11964, 1907, 27, -5079
7570, 9254, 4888, 11129, 3434, -262, -5221
7580, 8982, 4234, 9942, 3943, -897, -5214
7590, 8546, 3697, 9647, 3557, -1510, -5202
7600, 8043, 2827, 9988, 2623, -1778, -4965
7610, 7381, 2212, 10367, 1076, -2398, -4483
7620, 7201, 2492, 10456, 327, -2910, -4587
7630, 7253, 2955, 10252, -365, -3312, -4801
7640, 7662, 3824, 10420, -1164, -3291, -4620
7650, 7944, 4245, 10888, -2399, -2712, -4369
7660, 8408, 4556, 10918, -2341, -2394, -4078
7670, 9075, 4585, 10941, -1896, -1831, -3586
7680, 9556, 3896, 11352, -921, -856, -3109
7690, 9640, 3663, 11261, -429, -927, -3246
7700, 9578, 3506, 11007, -206, -1016, -3301
7710, 9827, 3343, 11160, -380, -1076, -3331
7720, 10266, 3489, 11583, -828, -1029, -4069
7730, 9853, 3560, 11780, -790, -894, -4567
7740, 9739, 3786, 12102, -198, -482, -4136
7750, 10218, 3669, 12374, 147, -69, -3500
7760, 10256, 3461, 12665, 462, 329, -3087
7770, 10112, 2961, 13152, 719, 377, -2841
7780, 10640, 3000, 13519, 1322, -498, -2919
7790, 10689, 3070, 13714, 1513, -854, -3099
7800, 10964, 3196, 14103, 1641, -1013, -3170
7810, 11383, 3212, 14761, 2059, -981, -2915
7820, 11465, 3231, 14699, 2267, -852, -2612
7830, 11630, 3091, 14867, 2269, -688, -2217
7840, 11855, 2863, 14894, 1972, -605, -1564
7850, 11858, 2946, 15030, 1594, -694, -1369
7860, 11931, 3359, 15246, 1149, -856, -1255
7870, 11926, 3829, 15453, 846, -969, -1123
7880, 11946, 4823, 15821, 368, -795, -885
7890, 11960, 5403, 15877, 239, -716, -1114
7900, 11733, 5603, 15849, 191, -628, -1501
7910, 11747, 5906, 15267, 415, -209, -1489
7920, 12215, 5564, 15404, 224, 124, -1079
7930, 12622, 5257, 15577, 42, 329, -813
7940, 12498, 4985, 15335, -37, 227, -843
7950, 12772, 4955, 14615, -674, -224, -741
7960, 12825, 5289, 14281, -1354, -447, -746
7970, 12659, 6156, 13840, -2081, -880, -1075
7980, 12452, 8034, 12995, -3213, -1705, -2105
7990, 12407, 8603, 12857, -3242, -1847, -2431
8000, 12337, 8821, 12685, -2599, -1702, -2350
8010, 12271, 8060, 12759, 261, -83, -228
8020, 12149, 7404, 12743, 1938, 1124, 1444
8030, 12089, 6649, 12818, 3154, 2182, 3007
8040, 12096, 5748, 12744, 3985, 3358, 4821
8050, 11990, 5506, 12378, 3815, 3657, 5274
8060, 11703, 5130, 12276, 3480, 3959, 5724
8070, 11510, 4934, 11366, 3296, 4462, 6776
8080, 11472, 4785, 10620, 3128, 4603, 7270
8090, 11249, 4377, 10457, 2702, 4645, 7691
8100, 11236, 4095, 10254, 2407, 4101, 7945
8110, 11230, 3735, 9501, 1555, 2099, 7684
8120, 10754, 3754, 9458, 858, 1091, 7070
8130, 9961, 3791, 9298, 297, 248, 6360
8140, 9003, 4166, 9063, -135, -244, 5933
8150, 8814, 4238, 9208, -887, -161, 5589
8160, 8612, 4215, 9250, -1022, 200, 5419
8170, 8646, 4221, 8932, -798, 691, 5512
8180, 8866, 4210, 8492, -493, 1442, 5864
8190, 9022, 4289, 8561, -499, 1369, 5695
8200, 8876, 4422, 8596, -450, 1065, 5262
8210, 8510, 4478, 9085, -129, 722, 4891
8220, 8353, 4630, 9394, 88, 815, 4771
8230, 8157, 4685, 9676, 213, 1060, 4441
8240, 8196, 4793, 10259, 213, 1638, 3517
8250, 8238, 5206, 10037, 315, 1737, 3060
8260, 8630, 5422, 10114, 199, 1779, 2801
8270, 9628, 5848, 10701, 324, 1780, 2617
8280, 10247, 5863, 10986, 684, 1661, 2455
8290, 10633, 5679, 11514, 876, 1508, 2213
8300, 10911, 5635, 12168, 906, 1323, 1895
8310, 11546, 5896, 13274, 622, 682, 898
8320, 11620, 6085, 13589, 310, 318, 282
8330, 11536, 6173, 13722, -105, -27, -196
8340, 11765, 6296, 13625, -970, -275, -337
8350, 11717, 6529, 13397, -1335, -268, -305
8360, 11807, 7063, 13382, -1609, -350, -381
8370, 12153, 8029, 13656, -1794, -503, -756
8380, 11423, 10026, 14164, -1390, -582, -2786
8390, 10578, 10624, 14156, -737, -273, -3741
8400, 10062, 10906, 14298, -202, 373, -4188
8410, 10624, 10519, 13874, 143, 1634, -4233
8420, 11087, 8102, 14327, -165, 1933, -4538
8430, 10662, 7516, 13442, 486, 1347, -5705
8440, 10388, 7444, 12655, 307, 429, -6108
8450, 10177, 7970, 12696, -685, -571, -6321
8460, 9801, 9531, 13691, -2136, -1858, -6422
8470, 8177, 7948, 13263, 2049, 695, -3097
8480, 8299, 7195, 12565, 2660, 899, -2608
8490, 8370, 6405, 11885, 2602, 627, -2603
8500, 8488, 5605, 11510, 1967, -79, -3018
8510, 8032, 4623, 10678, 529, -1875, -4274
8520, 7745, 4337, 10512, -84, -2704, -4862
8530, 7292, 4137, 10175, -416, -3443, -5417
8540, 6350, 4510, 9478, -664, -3992, -5673
8550, 6099, 4579, 9442, -754, -3780, -5379
8560, 6016, 4721, 9405, -682, -3357, -4910
8570, 6189, 4830, 9477, -462, -2819, -4298
8580, 8004, 5042, 9203, 382, -2086, -3123
8590, 8853, 5333, 9532, 750, -2093, -3054
8600, 8913, 5212, 10253, 1186, -2416, -3398
8610, 8060, 5282, 11132, 2556, -3734, -4793
8620, 7239, 4945, 11173, 2837, -4203, -5580
8630, 6839, 4669, 11170, 2473, -4514, -6148
8640, 6964, 4449, 11288, 1648, -4708, -6584
8650, 7888, 4510, 11592, 324, -4485, -7007
8660, 8255, 4696, 11455, 182, -4031, -6836
8670, 8675, 4857, 11463, 252, -3450, -6273
8680, 9602, 5000, 11848, 1109, -2546, -4677
8690, 9649, 5000, 12179, 1873, -2172, -4136
8700, 9474, 4759, 12435, 2628, -1849, -3953
8710, 9397, 3502, 12668, 3479, -1120, -3690
8720, 9647, 3179, 12650, 3445, -732, -3522
8730, 9882, 3285, 12630, 3215, -467, -3488
8740, 10389, 4596, 13451, 2878, -165, -3000
8750, 10794, 4786, 14436, 3469, 99, -2041
8760, 10811, 4498, 14967, 4786, 567, -857
8770, 10222, 3902, 15334, 5992, 1420, 329
8780, 10323, 4420, 15305, 5209, 1466, -89
8790, 10620, 4926, 15570, 4063, 1540, -805
8800, 10911, 5378, 15654, 3253, 1704, -1308
8810, 12455, 5740, 16325, 2013, 1945, -1653
8820, 12700, 6085, 16219, 1531, 1435, -2179
8830, 12763, 6655, 15981, 990, 558, -2686
8840, 12104, 7089, 16181, 229, -657, -3033
8850, 11665, 7167, 16076, 480, -1053, -2959
8860, 11407, 7385, 15933, 775, -1209, -2578
8870, 11355, 7522, 16099, 943, -1050, -1857
8880, 11461, 6430, 16200, 1184, -986, -858
8890, 11107, 5896, 15827, 965, -1302, -710
8900, 10961, 5948, 15629, 189, -1909, -618
8910, 11299, 7365, 15319, -2494, -3500, -853
8920, 11280, 8347, 15176, -3381, -3907, -962
8930, 10930, 8798, 14774, -3654, -3825, -976
8940, 10837, 8637, 13970, -3030, -2655, 225
8950, 11052, 8383, 13701, -2366, -1854, 1008
8960, 11072, 8116, 13496, -1519, -1052, 1549
8970, 10359, 6996, 12904, 271, 524, 1958
8980, 9868, 6234, 12600, 1011, 1300, 2375
8990, 9824, 5545, 12215, 1515, 2029, 3268
9000, 9912, 4974, 12035, 1725, 2698, 4415
9010, 10156, 3937, 11643, 1479, 3169, 5953
9020, 9902, 3604, 11289, 1147, 3128, 6204
9030, 9458, 3374, 10804, 643, 3027, 6389
9040, 9395, 3324, 10244, -1001, 3079, 7015
9050, 9837, 3418, 10346, -1764, 3427, 7429
9060, 10262, 3846, 10145, -2061, 3827, 7775
9070, 10716, 4207, 9805, -2003, 4305, 8178
9080, 11352, 4429, 9594, -1341, 4580, 8752
9090, 11375, 4546, 9387, -784, 4437, 8801
9100, 11044, 4645, 9199, -377, 4361, 9019
9110, 11161, 4509, 9307, -302, 3414, 9114
9120, 11444, 4458, 9444, -441, 2590, 8601
9130, 11226, 4397, 9575, -447, 1736, 7778
9140, 10719, 4336, 9637, -335, 997, 7099
9150, 9808, 4423, 9998, 44, 249, 7043
9160, 9496, 4470, 10124, 157, 129, 7304
9170, 9313, 4677, 10271, 175, 45, 7538
9180, 9511, 5456, 10788, -37, -124, 7494
9190, 9598, 5658, 11121, -8, -157, 7156
9200, 9729, 5786, 11044, 612, -106, 6396
9210, 9795, 5750, 10905, 694, -61, 5896
9220, 9584, 5581, 11127, 403, -79, 5060
9230, 9221, 5354, 11283, 68, -245, 3921
9240, 9373, 5801, 11643, -622, -423, 2735
9250, 9912, 6136, 12068, -928, -271, 2962
9260, 10247, 6512, 12443, -1005, -76, 3281
9270, 10641, 7610, 12682, -1098, -55, 3191
9280, 10569, 7832, 12917, -1113, -37, 2671
9290, 10045, 7840, 12935, -884, -79, 1953
9300, 10025, 8044, 12403, -466, -292, 1410
9310, 10502, 8732, 12619, -579, -315, 1657
9320, 10802, 9400, 13055, -734, -396, 1937
9330, 10885, 9779, 13335, -907, -718, 1754
9340, 10830, 10778, 13943, -1365, -1742, 363
9350, 10250, 11322, 14306, -1397, -2188, -903
9360, 9549, 11651, 13878, -1044, -2264, -2169
9370, 8088, 10270, 13804, -512, -1789, -3963
9380, 8092, 9072, 13577, 1375, -355, -4214
9390, 8659, 8369, 13144, 2342, 145, -3701
9400, 9818, 8088, 13214, 2635, 393, -2862
9410, 10005, 7922, 14242, 2139, 20, -2208
9420, 9529, 7612, 13778, 1583, 2, -2626
9430, 9579, 7427, 13291, 1590, 44, -2830
9440, 9307, 6583, 12273, 1348, -763, -4305
9450, 8765, 6124, 11434, 1154, -1552, -5104
9460, 8231, 5758, 10903, 777, -2284, -5421
9470, 7716, 4672, 10746, 399, -2880, -5073
9480, 7118, 4275, 10567, 90, -3167, -4690
9490, 6825, 4129, 10509, -180, -3201, -4421
9500, 6776, 4190, 10411, -588, -3341, -4281
9510, 7205, 4641, 10044, -1088, -3582, -4305
9520, 7244, 5029, 9805, -956, -3725, -4497
9530, 7119, 5444, 9653, -729, -3923, -4748
9540, 7633, 6048, 9197, 79, -4177, -4816
9550, 8210, 5722, 9931, 315, -4170, -5097
9560, 8017, 5621, 10194, 493, -4195, -5881
9570, 7501, 5313, 10752, 698, -4323, -6629
9580, 7048, 5218, 10850, 1539, -2935, -6496
9590, 7324, 5135, 11161, 1404, -2201, -6338
9600, 7878, 5229, 11353, 1296, -1665, -6302
9610, 8868, 5749, 11331, 1425, -1296, -6669
9620, 9109, 5987, 11465, 2107, -1052, -6919
9630, 9097, 6240, 11611, 2762, -1073, -7169
9640, 8994, 6206, 11682, 3605, -1035, -7361
9650, 8855, 5456, 12333, 4972, -381, -7019
9660, 8853, 5021, 12800, 5409, -54, -6661
9670, 9129, 4679, 13456, 5707, 527, -5575
9680, 9511, 4253, 13599, 5883, 1022, -5201
9690, 9953, 3849, 13688, 5693, 1090, -5130
9700, 10392, 3482, 13997, 5255, 738, -5198
9710, 10451, 3476, 14800, 4144, -234, -4988
9720, 11100, 4435, 14605, 3652, -802, -4815
9730, 11509, 4962, 14895, 2991, -1420, -5156
9740, 11604, 5451, 15516, 2598, -2058, -6196
9750, 11257, 5638, 15690, 2694, -2185, -6607
9760, 11875, 5965, 15629, 2756, -2178, -6470
9770, 12409, 5772, 15885, 2638, -1925, -5922
9780, 12652, 6066, 17367, 1664, -1944, -5080
9790, 13259, 7087, 17372, 1435, -2103, -4523
9800, 13835, 7564, 17657, 1197, -2051, -3991
9810, 14777, 7542, 17871, 1541, -1333, -2579
9820, 13789, 6453, 17598, 1768, -892, -2099
9830, 13137, 5561, 17310, 1766, -485, -1133
9840, 14810, 4713, 16778, 1475, 84, 121
9850, 14800, 3885, 15969, -1810, -881, -899
9860, 14202, 4999, 15640, -3709, -1900, -1946
9870, 13451, 6126, 15386, -5054, -2465, -2459
9880, 12359, 7859, 14703, -4982, -2079, -1599
9890, 11903, 7983, 14245, -3854, -1107, -358
9900, 11636, 7316, 13388, -823, 1210, 2951
9910, 11276, 6737, 13073, 271, 2100, 4079
9920, 10909, 6227, 12628, 928, 2526, 4662
9930, 10568, 5730, 12283, 1203, 2688, 4960
9940, 10305, 5182, 11468, 1324, 2672, 5234
9950, 10229, 4890, 11056, 1174, 2846, 5348
9960, 9910, 4658, 10622, 1071, 3156, 5542
9970, 9435, 4555, 9522, 1004, 3569, 6163
9980, 9241, 4547, 9095, 1033, 3703, 6556
9990, 9181, 4636, 8817, 1136, 3795, 7022
10000, 9202, 4555, 8654, 1256, 3851, 7490
10010, 9549, 4484, 8412, 1366, 3822, 8342
10020, 9475, 4268, 8648, 1137, 3804, 8449
10030, 9588, 4178, 8774, 915, 3630, 8345
10040, 9442, 4468, 8801, 129, 3239, 7717
10050, 9471, 4686, 9011, -324, 3183, 7516
10060, 9629, 4931, 9158, -529, 3255, 7508
10070, 9806, 5239, 9178, -478, 3381, 7622
10080, 10289, 5504, 9173, -166, 3629, 8072
10090, 10673, 5433, 9281, -160, 3608, 8219
10100, 11142, 5315, 9530, -358, 3411, 8174
10110, 11221, 5336, 9891, -634, 3148, 7931
10120, 11170, 5907, 10444, -994, 2323, 7191
10130, 11250, 5876, 10828, -1037, 2073, 6952
10140, 10916, 5848, 10751, -936, 1714, 6853
10150, 10889, 5977, 11054, -1341, 1516, 6784
10160, 10765, 6219, 11319, -1850, 1156, 6349
10170, 10466, 6855, 11554, -2441, 331, 5060
10180, 10584, 7070, 11910, -2464, 186, 4916
10190, 10657, 7285, 12358, -2249, 196, 5091
10200, 10802, 7341, 12651, -1933, 225, 5394
10210, 10478, 7177, 12742, -1811, 200, 5652
10220, 10365, 7233, 12665, -2283, -120, 5274
10230, 10065, 7311, 12589, -2937, -466, 4587
10240, 9904, 7538, 12435, -3658, -886, 3750
10250, 10161, 8978, 12915, -4728, -1690, 2658
10260, 10591, 9910, 13290, -4795, -1865, 2485
10270, 10454, 10552, 13555, -4502, -1814, 2375
10280, 10641, 11536, 13503, -3671, -1943, 2054
10290, 10660, 11795, 13839, -3525, -1893, 1720
10300, 10706, 12108, 14040, -3454, -1955, 921
10310, 9393, 11246, 13885, -2812, -1914, -2157
10320, 9020, 10552, 13286, -1836, -1640, -3069
10330, 9357, 9888, 12940, -918, -1160, -2915
10340, 9905, 9507, 13075, -161, -592, -2140
10350, 10325, 9115, 13561, 1152, -11, -824
10360, 9594, 7980, 13183, 3063, -359, -641
10370, 8986, 7409, 12787, 3682, -417, -306
10380, 8762, 7086, 12484, 3743, -600, -357
10390, 8577, 6735, 12006, 3628, -952, -667
10400, 8232, 6483, 11592, 3269, -1443, -1183
10410, 7811, 6122, 10639, 2042, -2471, -2164
10420, 7227, 5658, 10201, 1401, -2655, -2540
10430, 6631, 5271, 9629, 848, -2866, -2959
10440, 6199, 5050, 8667, 80, -3426, -3614
10450, 6092, 5169, 8600, -169, -3659, -3868
10460, 5913, 5286, 8756, -237, -3806, -4178
10470, 5739, 5449, 9023, -113, -3587, -4701
10480, 5803, 5274, 9390, 279, -3456, -4805
10490, 6155, 5047, 9834, 494, -3109, -4887
10500, 6280, 4774, 10091, 736, -2767, -5099
10510, 7203, 4489, 10580, 748, -2127, -5359
10520, 7784, 4442, 10836, 572, -1935, -5696
10530, 8122, 4449, 10960, 405, -1992, -6391
10540, 8481, 4605, 11061, 8, -2468, -7825
10550, 8880, 4787, 11243, 4, -2659, -8222
10560, 9205, 4865, 11535, 221, -2715, -8395
10570, 9498, 4826, 11882, 690, -2638, -8313
10580, 10001, 4262, 12448, 1879, -2088, -7671
10590, 10386, 3677, 12682, 2293, -1763, -7247
10600, 11127, 2556, 13463, 2277, -1395, -6879
10610, 11111, 2233, 13954, 1993, -1304, -6888
10620, 11190, 2188, 14301, 1675, -1274, -6666
10630, 11844, 2547, 14583, 1296, -1233, -6178
10640, 12774, 2898, 15175, 756, -1113, -5342
10650, 13031, 3108, 15135, 730, -1309, -5208
10660, 13107, 3238, 14897, 789, -1487, -5070
10670, 13193, 3463, 14499, 1242, -1833, -4561
10680, 13322, 3543, 14647, 1332, -2235, -4465
10690, 13616, 3646, 15151, 1112, -2749, -4510
10700, 13217, 4299, 16199, 278, -3191, -4665
10710, 13329, 5007, 16457, -128, -3090, -4535
10720, 13423, 5727, 16778, -345, -2692, -4337
10730, 13514, 6330, 17005, -39, -2113, -4097
10740, 14132, 6155, 16727, 1468, -624, -2869
10750, 14376, 5495, 16500, 2114, -169, -2189
10760, 14234, 4711, 16275, 2476, -133, -1755
10770, 13605, 3733, 15391, 1990, -972, -1668
10780, 13166, 3910, 14999, 1112, -1686, -2055
10790, 12717, 4494, 14691, -26, -2470, -2657
10800, 12320, 5587, 14386, -1098, -3107, -3275
10810, 11322, 7394, 14184, -1658, -2976, -3567
10820, 11020, 7702, 13895, -797, -2134, -2876
10830, 11651, 6819, 13385, 1871, 298, -71
10840, 11320, 6037, 13288, 3075, 1664, 1379
10850, 11005, 5576, 12956, 3818, 2421, 2292
10860, 10971, 5204, 12555, 3942, 2694, 2728
10870, 10571, 4449, 11975, 3288, 2667, 2613
10880, 10326, 4212, 11477, 2954, 2514, 2504
10890, 10083, 4187, 11044, 2643, 2457, 2665
10900, 9754, 4467, 10350, 2210, 2558, 3429
10910, 9651, 4490, 10021, 2115, 2588, 3697
10920, 9708, 4337, 9756, 2020, 2457, 3689
10930, 9365, 4010, 9053, 2032, 2161, 3412
10940, 9130, 3726, 8728, 1915, 2141, 3499
10950, 9140, 3536, 8520, 1648, 2085, 3758
10960, 9221, 3380, 8246, 1229, 1909, 3928
10970, 8955, 3620, 8058, 510, 1482, 3791
10980, 8486, 3898, 8099, 201, 1430, 3790
10990, 8241, 4403, 7994, -36, 1553, 4069
11000, 8720, 5346, 8501, 67, 2247, 4965
11010, 9010, 5615, 8768, 629, 2574, 5309
11020, 9179, 5406, 9074, 1347, 2724, 5504
11030, 9498, 5231, 8854, 1968, 2816, 5488
11040, 9037, 5137, 9201, 1852, 3389, 5224
11050, 9033, 5417, 9443, 1397, 3142, 4810
11060, 9389, 6443, 10149, 412, 2568, 3551
11070, 9981, 6894, 10636, 271, 2444, 3292
11080, 10757, 6991, 10977, 396, 2481, 3340
11090, 10875, 6153, 11494, 1003, 2437, 3159
11100, 10811, 5960, 11741, 1021, 2086, 2999
11110, 10710, 6198, 12180, 730, 1720, 2861
11120, 11568, 7264, 13335, -399, 1136, 2608
11130, 12386, 7690, 13901, -942, 923, 2292
11140, 12960, 7666, 14337, -1241, 837, 1951
11150, 12871, 7549, 14149, -1242, 828, 1617
11160, 11550, 7066, 12815, -1573, 21, 789
11170, 10920, 7614, 12322, -2134, -730, 544
11180, 10740, 8436, 12848, -3047, -1550, 481
11190, 10161, 10287, 13885, -3798, -2501, 20
11200, 9300, 10938, 14240, -3495, -2329, -328
11210, 9264, 11637, 14756, -3077, -1869, -305
11220, 11287, 11864, 15529, -2445, -259, 158
11230, 12140, 10169, 14533, -2225, 223, -1177
11240, 11786, 9387, 13696, -2194, -273, -1963
11250, 11610, 9136, 13318, -2711, -957, -2349
11260, 11688, 9388, 13498, -3318, -1782, -2531
11270, 10790, 10175, 13465, -3277, -2730, -2631
11280, 10182, 10156, 13091, -2635, -2609, -2189
11290, 8156, 9671, 11760, 447, -987, 801
11300, 7586, 8958, 11265, 1608, -730, 888
11310, 7105, 8268, 10886, 2181, -824, 704
11320, 6725, 7597, 10604, 2692, -1085, 659
11330, 6543, 6977, 10249, 3064, -1478, 661
11340, 5453, 6193, 9520, 2877, -2321, 37
11350, 5133, 6087, 9383, 2337, -2819, -516
11360, 4984, 5889, 9559, 1775, -3285, -1199
11370, 5521, 6330, 9259, 1376, -3971, -2485
11380, 5974, 6596, 9319, 1054, -3636, -2764
11390, 6426, 6703, 9501, 819, -3119, -2862
11400, 7038, 6604, 9632, 1147, -2382, -2991
11410, 7540, 6515, 9767, 1222, -2178, -3039
11420, 7885, 6244, 9897, 1106, -2061, -3198
11430, 8019, 6032, 9987, 840, -2082, -3420
11440, 8462, 6339, 9900, 6, -2504, -4132
11450, 8149, 6243, 10248, -593, -2491, -4646
11460, 8011, 6277, 10369, -731, -2522, -5094
11470, 8289, 6481, 10667, -65, -2415, -5519
11480, 8338, 6418, 10999, 452, -2120, -5503
11490, 8612, 6200, 11245, 1111, -1789, -5322
11500, 8950, 5776, 11442, 1642, -1338, -4949
11510, 9448, 5126, 12086, 1655, -1170, -4973
11520, 9521, 5121, 12364, 1403, -1413, -5403
11530, 9454, 5003, 12902, 1285, -1395, -6034
11540, 9710, 4892, 13060, 1557, -1219, -6134
11550, 9961, 4708, 13162, 1900, -1011, -6132
11560, 10536, 4158, 13601, 2389, -800, -6035
11570, 10557, 4008, 13916, 2405, -865, -5975
11580, 10710, 4055, 14082, 2339, -1204, -5976
11590, 10811, 4039, 14131, 2185, -1512, -5918
11600, 10893, 3949, 14429, 1786, -1586, -5363
11610, 11242, 4042, 15077, 1513, -1568, -4871
11620, 11929, 4686, 15303, 1352, -1692, -4539
11630, 12642, 5751, 16016, 700, -1631, -4643
11640, 12668, 6290, 16459, 515, -1431, -4621
11650, 12770, 6783, 16795, 698, -1100, -4354
11660, 13297, 7141, 16754, 1162, -552, -3797
11670, 13314, 6022, 17525, 1954, 586, -2574
11680, 13587, 5527, 16887, 2517, 718, -2103
11690, 13480, 4638, 16433, 2558, 941, -1597
11700, 13361, 3828, 15854, 1322, 733, -577
11710, 13297, 4090, 15477, 152, 52, -572
11720, 13048, 4787, 15110, -1201, -794, -906
11730, 12874, 5784, 14706, -2455, -1553, -1344
11740, 12096, 7288, 13989, -3545, -1910, -1368
11750, 11856, 7663, 13786, -2998, -1261, -320
11760, 11468, 7364, 12773, -192, 742, 2868
11770, 11463, 7105, 12139, 981, 1288, 4174
11780, 11762, 6617, 12055, 1545, 1471, 4927
11790, 10951, 5723, 11922, 1796, 1512, 5117
11800, 10514, 5455, 11647, 2001, 1430, 5031
11810, 10273, 5454, 11269, 2036, 1576, 5207
11820, 10071, 5457, 11141, 2010, 2021, 5516
11830, 9429, 5726, 10643, 2227, 3066, 5940
11840, 9633, 5718, 10285, 2308, 3548, 6285
11850, 9710, 5384, 9876, 2357, 3956, 6607
11860, 9811, 4945, 9599, 2234, 4082, 6759
11870, 9715, 4866, 8706, 1767, 3640, 6274
11880, 9243, 4901, 8410, 1450, 3433, 6062
11890, 8980, 4978, 8145, 1155, 3128, 5891
11900, 9385, 5387, 8141, 525, 2538, 5733
11910, 9326, 5385, 8279, 370, 2484, 5791
11920, 9257, 5622, 8394, 249, 2492, 6001
11930, 9408, 5996, 8428, 70, 2370, 6019
11940, 9527, 6277, 8591, -431, 1964, 5130
11950, 9482, 6142, 8546, -506, 1886, 4818
11960, 9470, 5998, 8420, -453, 1822, 4806
11970, 9635, 6197, 8428, -371, 1601, 5252
11980, 9754, 6267, 8945, -433, 1366, 5277
11990, 9592, 6336, 9604, -499, 987, 4944
12000, 9747, 6474, 11478, -330, -143, 4315
12010, 10095, 6212, 12674, -84, -720, 4102
12020, 9908, 5675, 13255, 270, -1146, 3603
12030, 8842, 4619, 12727, -393, -1434, 1895
12040, 8811, 4391, 12909, -1972, -1420, 731
12050, 9484, 4235, 13448, -3875, -1507, -425
12060, 10515, 4150, 13485, -5251, -1361, -1226
12070, 10868, 4314, 13432, -6744, -168, -1185
12080, 11787, 4759, 13279, -7366, -25, -798
12090, 12790, 5326, 13198, -8152, -239, -759
12100, 12905, 6631, 13080, -9161, -1755, -2050
12110, 12508, 7585, 13140, -9218, -2743, -2467
12120, 12358, 8756, 13518, -8872, -3410, -2261
12130, 12276, 10088, 14422, -6810, -3099, -418
12140, 11917, 10201, 15063, -5469, -2357, 645
12150, 12217, 10199, 15464, -4081, -1741, 1566
12160, 12848, 10246, 15898, -2410, -793, 2044
12170, 12214, 9505, 15977, -1984, -490, 1383
12180, 11607, 8277, 15375, -1291, -440, 669
12190, 11342, 7372, 14612, -647, -469, 426
12200, 11113, 6455, 14245, -216, -693, 887
12210, 10689, 6471, 14020, -39, -1006, 1204
12220, 9352, 7371, 13409, 347, -1257, 1893
12230, 8524, 7351, 12647, 1244, -536, 2442
12240, 8442, 7442, 12304, 1597, -326, 2762
12250, 8353, 7369, 12145, 1803, -202, 2873
12260, 7924, 6722, 11490, 2009, -253, 2648
12270, 7695, 6342, 10988, 2413, -698, 1750
12280, 7526, 5986, 10648, 2394, -917, 1438
12290, 7397, 5561, 10428, 2353, -1056, 1254
12300, 7337, 4950, 10007, 2305, -1271, 874
12310, 7256, 4717, 9899, 2100, -1232, 602
12320, 6952, 4449, 9778, 1704, -1167, 259
12330, 6683, 4461, 9566, 1211, -1277, -199
12340, 6450, 5114, 9378, 101, -1517, -1244
12350, 6279, 5514, 9505, -78, -1391, -1646
12360, 6362, 5935, 9568, 110, -1080, -1744
12370, 7200, 6019, 9666, 1365, 13, -1104
12380, 7785, 5529, 9887, 2139, 467, -744
12390, 8020, 4904, 10055, 2724, 571, -737
12400, 7332, 4426, 10078, 2611, -435, -1983
12410, 7072, 4628, 10234, 2065, -1227, -2953
12420, 6672, 4839, 10400, 1512, -1761, -3939
12430, 6479, 5034, 10652, 1249, -2034, -4684
12440, 6889, 5089, 11297, 1738, -1552, -4917
12450, 7033, 4858, 11575, 2353, -1054, -4649
12460, 7906, 4064, 11906, 3040, -522, -4355
12470, 8214, 3757, 12163, 2803, -671, -4811
12480, 8313, 3648, 12422, 2303, -1100, -5613
12490, 8287, 3725, 12556, 1687, -1600, -6463
12500, 8633, 4151, 12994, 590, -2295, -7790
12510, 8923, 4284, 13125, 444, -2333, -8134
12520, 9476, 4397, 13373, 504, -2178, -8133
12530, 11288, 3940, 14010, 738, -1682, -7665
12540, 11767, 3375, 14291, 1370, -1438, -7369
12550, 11671, 3002, 14391, 1422, -1263, -7059
12560, 12526, 2852, 14580, 1224, -1406, -6899
12570, 12373, 2652, 14869, 746, -1950, -7528
12580, 12373, 2957, 15046, 580, -2260, -7520
12590, 12676, 3460, 15375, 388, -2456, -7259
12600, 13205, 4479, 15824, 436, -2348, -6508
12610, 13300, 4612, 15902, 775, -2205, -6138
12620, 13463, 4702, 16066, 1235, -2107, -5724
12630, 13540, 4756, 16178, 1688, -1929, -5225
12640, 14337, 5163, 16994, 1979, -1365, -4111
12650, 14298, 4990, 17336, 2053, -1188, -4219
12660, 14087, 4494, 17230, 2266, -1017, -4392
12670, 13948, 3283, 16661, 2376, -797, -4405
12680, 14218, 3246, 16358, 1670, -520, -3473
12690, 14336, 3596, 15972, 1023, -617, -2980
12700, 13944, 5187, 15042, -592, -1584, -3163
12710, 13565, 6086, 14463, -1187, -2133, -3553
12720, 13125, 6605, 14054, -1302, -2334, -3679
12730, 11671, 6760, 13393, 83, -1383, -2390
12740, 11312, 6379, 13118, 1361, -320, -1021
12750, 10735, 6006, 12678, 2577, 890, 500
12760, 10474, 5753, 12119, 3346, 1796, 1891
12770, 10616, 5314, 12015, 3409, 2506, 3166
12780, 10416, 5347, 11762, 3462, 2465, 3162
12790, 10177, 5280, 11487, 3471, 2439, 3291
12800, 9765, 4739, 10828, 3539, 2726, 4014
12810, 9523, 4572, 10527, 3445, 2739, 4162
12820, 9086, 4553, 10008, 3316, 2561, 4025
12830, 8330, 4442, 9198, 3131, 2422, 3793
12840, 8379, 4256, 8893, 2721, 2397, 4004
12850, 8544, 4247, 8754, 2558, 2326, 4167
12860, 8850, 4357, 8766, 2405, 2111, 4129
12870, 9029, 4252, 8955, 2255, 2092, 4172
12880, 9079, 4247, 9004, 2236, 2053, 4373
12890, 8976, 4229, 8937, 2112, 1934, 4559
12900, 8370, 5008, 9143, 1429, 1467, 4193
12910, 8141, 5223, 9240, 1097, 1304, 3711
12920, 7865, 5434, 9234, 1080, 1324, 3351
12930, 8401, 5582, 9177, 1465, 1866, 3694
12940, 9053, 5501, 9372, 1638, 2188, 4103
12950, 9592, 5240, 9629, 1639, 2321, 4325
12960, 10174, 5339, 10050, 866, 1695, 3940
12970, 10343, 5694, 10399, 298, 1263, 3580
12980, 10406, 6094, 10781, -91, 994, 3224
12990, 10435, 6427, 11034, -209, 940, 2972
13000, 10366, 6321, 11370, 296, 1163, 2556
13010, 10250, 5800, 11541, 647, 1216, 2489
13020, 10297, 5536, 11787, 833, 1155, 2712
13030, 10407, 6278, 12857, 261, 830, 2870
13040, 10439, 7033, 13358, -264, 518, 2437
13050, 11142, 7610, 14018, -826, 364, 2176
13060, 11922, 7100, 14605, -1186, 627, 2046
13070, 11271, 6748, 14112, -1319, 304, 1442
13080, 10713, 6961, 13657, -1918, -322, 733
13090, 10557, 7764, 13841, -2941, -972, 88
13100, 11034, 9724, 14660, -4342, -1656, -791
13110, 11293, 10589, 15284, -4328, -1561, -874
13120, 11853, 11297, 15731, -3843, -1356, -717
13130, 12827, 11815, 16005, -2722, -914, -422
13140, 13048, 11456, 15767, -2344, -921, -788
13150, 11087, 8128, 13114, -2482, -1603, -1798
13160, 10599, 9108, 13138, -4089, -2954, -2041
13170, 9724, 9913, 12915, -4071, -3371, -2165
13180, 8973, 10376, 12754, -3559, -3347, -1892
13190, 8092, 10466, 12265, -1444, -2145, -272
13200, 7965, 10029, 11970, -303, -1387, 604
13210, 7895, 9270, 11664, 541, -962, 931
13220, 7756, 8370, 11282, 909, -992, 619
13230, 7226, 7037, 10204, 491, -1939, -824
13240, 6746, 6632, 9848, -52, -2517, -1603
13250, 6082, 6430, 9544, -449, -2967, -2210
13260, 5314, 6597, 9196, -617, -3273, -2621
13270, 5193, 6508, 9143, -473, -3061, -2606
13280, 5397, 6279, 9064, -139, -2789, -2539
13290, 5773, 5980, 9045, 78, -2527, -2511
13300, 6630, 5048, 9169, -74, -2347, -2816
13310, 6651, 4630, 9384, -529, -2318, -3135
13320, 6653, 4558, 9715, -1227, -2449, -3625
13330, 7114, 5293, 10374, -2562, -2690, -4946
13340, 7388, 5654, 10536, -2633, -2625, -5466
13350, 7616, 6213, 9799, -2430, -2184, -5624
13360, 7702, 5285, 11547, -2524, -1570, -5545
13370, 8185, 5336, 10865, -899, -1725, -5219
13380, 8122, 4983, 10875, -730, -1478, -5298
13390, 8272, 4519, 11881, -901, -1339, -5594
13400, 8561, 4777, 11902, -612, -1337, -5811
13410, 8781, 4898, 11967, -215, -1148, -5963
13420, 9390, 4616, 12079, 1043, -628, -5545
13430, 9068, 4168, 12245, 1576, -219, -5013
13440, 9052, 3631, 12887, 1978, -203, -4461
13450, 9522, 3693, 12814, 2639, -636, -3998
13460, 9954, 3379, 13771, 2565, -1185, -3783
13470, 10121, 3421, 14385, 2334, -1546, -4090
13480, 10148, 3716, 14670, 2274, -1848, -4426
13490, 10173, 4005, 15408, 2280, -1551, -4264
13500, 10460, 3995, 15518, 2655, -1083, -3844
13510, 10212, 3660, 15600, 2820, -622, -3524
13520, 10524, 3477, 15518, 2862, -353, -3034
13530, 11639, 3348, 16080, 2165, -274, -2067
13540, 12021, 3570, 16470, 1421, -655, -1974
13550, 12502, 4148, 16884, 471, -1310, -2297
13560, 12370, 4669, 17243, -628, -1892, -3000
13570, 12323, 5174, 17689, -2119, -2163, -3741
13580, 12275, 5334, 17630, -2554, -1792, -3480
13590, 12778, 5369, 17337, -2771, -1282, -2851
13600, 13589, 4841, 15843, -3207, -572, -2017
13610, 14097, 4553, 14749, -3428, -552, -1854
13620, 13259, 3729, 13848, -3959, -1370, -2003
13630, 13114, 4480, 13445, -5095, -2431, -2424
13640, 12610, 5598, 13426, -5402, -3289, -2740
13650, 11899, 6594, 13755, -5180, -3625, -2604
13660, 11434, 7624, 14045, -3045, -2876, -858
13670, 11149, 7673, 14154, -1639, -1990, 318
13680, 11277, 7426, 13925, -297, -1042, 1483
13690, 11501, 6807, 13860, 725, 50, 2489
13700, 11265, 5786, 13655, 1574, 1517, 3619
13710, 11202, 5727, 13289, 1486, 1735, 3763
13720, 11093, 5700, 12956, 1177, 1833, 3782
13730, 10781, 5543, 12263, 710, 1817, 3625
13740, 10377, 5455, 11822, 732, 1775, 3591
13750, 10015, 5368, 11514, 910, 1762, 3732
13760, 9817, 5344, 11450, 1200, 1720, 4042
13770, 9858, 4628, 11458, 1846, 1551, 4781
13780, 9674, 4053, 11449, 2017, 1387, 5028
13790, 9510, 3668, 11396, 1961, 1130, 5137
13800, 9440, 3217, 11005, 1128, 711, 5150
13810, 9271, 2960, 10753, 401, 516, 4947
13820, 9228, 2943, 10462, -374, 314, 4662
13830, 9061, 3037, 10242, -1052, 87, 4304
13840, 8554, 3901, 9903, -1765, -32, 4103
13850, 8498, 4295, 9817, -1840, 14, 4224
13860, 8429, 4908, 9567, -1658, 300, 4541
13870, 8517, 5080, 9547, -1628, 506, 4625
13880, 8674, 5125, 9576, -1677, 733, 4590
13890, 8606, 5483, 9652, -1911, 1017, 4033
13900, 8572, 5755, 9619, -2016, 1072, 3572
13910, 8712, 5962, 9663, -1943, 1211, 3222
13920, 9063, 6020, 9749, -1637, 1441, 3007
13930, 9168, 5709, 9991, -771, 2020, 2459
13940, 8836, 5433, 10054, -394, 1918, 2134
13950, 9221, 5463, 10092, -151, 1432, 1852
13960, 9284, 5237, 10523, -137, 1252, 1287
13970, 9117, 5230, 10823, 45, 1391, 1237
13980, 9015, 5356, 11012, 324, 1503, 1373
13990, 9381, 5388, 11262, 685, 1615, 1652
14000, 10339, 4881, 12044, 1230, 1761, 1930
14010, 10811, 4694, 12295, 1260, 1603, 1719
14020, 11071, 4601, 12542, 1024, 1196, 1166
14030, 11243, 4590, 12784, 26, 250, -194
14040, 10464, 4497, 12992, -389, 17, -860
14050, 10199, 4446, 13018, -641, -258, -1204
14060, 10328, 5381, 13786, -781, -904, -992
14070, 10627, 5966, 14342, -792, -1108, -674
14080, 12263, 8370, 16620, -1523, -1285, -2551
14090, 12245, 8065, 16545, -1659, -1149, -3389
14100, 12084, 6115, 15627, -1608, -720, -4663
14110, 12175, 4962, 14997, -1686, -612, -4631
14120, 12273, 4522, 14717, -1950, -684, -4411
14130, 12055, 4350, 14494, -2169, -860, -4225
14140, 11313, 4963, 13998, -1782, -762, -3019
14150, 11059, 5346, 13968, -1157, -406, -1978
14160, 10729, 5700, 13904, -211, 52, -819
14170, 10436, 5654, 13584, 2223, 1177, 2065
14180, 10445, 5209, 13523, 3150, 1503, 3116
14190, 10283, 4575, 13322, 3732, 1457, 3446
14200, 9848, 3261, 12668, 3603, 515, 2835
14210, 9723, 2637, 12517, 2950, -131, 2207
14220, 9483, 2330, 12352, 2228, -797, 1408
14230, 8862, 2125, 12117, 1572, -1243, 663
14240, 7920, 2306, 11587, 907, -1054, 594
14250, 7836, 2679, 11336, 1016, -596, 1005
14260, 7780, 2930, 11116, 1287, -75, 1323
14270, 7868, 2936, 10805, 2238, 838, 1999
14280, 8128, 2785, 10807, 2853, 1154, 2397
14290, 8340, 2490, 10948, 3436, 1354, 2752
14300, 8420, 2138, 11165, 3915, 1384, 2949
14310, 8545, 1778, 11529, 4106, 955, 2705
14320, 8607, 1752, 11786, 3969, 730, 2331
14330, 8706, 1711, 11967, 3841, 677, 1990
14340, 8995, 1431, 12228, 3933, 1375, 2072
14350, 9104, 1494, 12167, 4215, 1815, 2308
14360, 9164, 1515, 12093, 4582, 2240, 2554
14370, 9045, 1069, 12124, 5298, 3085, 3289
14380, 9323, 801, 12088, 5468, 3275, 3697
14390, 9672, 619, 12106, 5448, 3167, 3878
14400, 9775, 489, 12248, 5266, 2851, 3792
14410, 9607, 465, 12557, 4949, 2103, 3802
14420, 9749, 645, 12782, 4915, 1877, 4086
14430, 9979, 911, 13132, 4888, 1609, 4254
14440, 10342, 1094, 13995, 4740, 505, 3909
14450, 10064, 874, 14116, 4596, -292, 3272
14460, 9799, 815, 14110, 4241, -908, 2548
14470, 9125, 993, 13902, 3599, -1116, 1758
14480, 8580, 1402, 13545, 2259, -221, 710
14490, 8856, 2210, 13342, 1767, 275, 503
14500, 9955, 2856, 13320, 1695, 896, 964
14510, 11903, 3078, 13150, 4053, 3296, 4125
14520, 12825, 2671, 13224, 5369, 4101, 5823
14530, 13642, 2527, 13621, 6022, 4331, 6876
14540, 14108, 2670, 14289, 6033, 4035, 7109
14550, 14536, 5186, 15159, 5250, 2774, 6120
14560, 14638, 5931, 16008, 4715, 2602, 5530
14570, 14408, 5672, 15931, 5797, 3293, 5269
14580, 14209, 4902, 15278, 6442, 3963, 5641
14590, 14665, 3971, 14795, 6549, 4512, 6342
14600, 15692, 3653, 13552, 6250, 4354, 7150
14610, 16043, 4455, 12954, 4692, 3499, 6812
14620, 16044, 5493, 12820, 3812, 2530, 6203
14630, 15566, 6589, 12831, 3581, 1786, 5722
14640, 14652, 8026, 12593, 5509, 2105, 6996
14650, 14593, 7911, 12675, 6943, 3133, 8558
14660, 14405, 7450, 12708, 8240, 4252, 9957
14670, 14154, 6424, 11891, 9551, 5709, 11277
14680, 14123, 6111, 11424, 9417, 6109, 11386
14690, 13976, 5917, 10902, 8985, 6259, 11238
14700, 13818, 5652, 10380, 8624, 6265, 11114
14710, 13410, 5367, 9361, 8452, 6132, 11276
14720, 13094, 5148, 8972, 8469, 5796, 11430
14730, 12980, 4914, 8655, 8486, 5261, 11619
14740, 12728, 4756, 8533, 8414, 4618, 11687
14750, 11786, 4858, 8683, 8332, 3230, 11358
14760, 11266, 5047, 8943, 8338, 2787, 11231
14770, 10843, 5289, 9252, 8346, 2594, 11192
14780, 10853, 5578, 9870, 8790, 2787, 11504
14790, 11067, 5553, 10151, 9150, 3148, 11862
14800, 11023, 4621, 10330, 10009, 4179, 12474
14810, 10918, 4205, 10181, 10335, 4731, 12977
14820, 10845, 3934, 9965, 10404, 5189, 13455
14830, 10932, 3733, 9807, 10207, 5509, 13786
14840, 11118, 3449, 9376, 8990, 5350, 13345
14850, 11296, 3519, 9246, 8067, 4900, 12647
14860, 11255, 3848, 9178, 7230, 4435, 11779
14870, 10303, 4098, 8717, 6078, 3807, 9890
14880, 10308, 4055, 8574, 5670, 3797, 9438
14890, 10747, 3753, 8634, 5234, 3920, 9300
14900, 10946, 3309, 8731, 4801, 4043, 9199
14910, 11520, 3323, 9089, 3482, 3691, 8605
14920, 11712, 3632, 9070, 2766, 3355, 7933
14930, 11653, 4104, 8886, 2104, 3052, 7216
14940, 11976, 5342, 8912, 1577, 2772, 6702
14950, 12519, 5798, 9207, 1280, 2586, 6692
14960, 13202, 6212, 9592, 1512, 2426, 6855
14970, 13404, 6210, 9763, 1907, 2161, 6754
14980, 13217, 5424, 10181, 2297, 1692, 6576
14990, 13002, 5299, 10482, 2089, 1336, 6291
15000, 13037, 5573, 10827, 1728, 945, 5961
15010, 13275, 7852, 13419, 4501, 1841, 7250
15020, 14007, 7493, 14176, 5774, 2236, 8461
15030, 14435, 6392, 15696, 6601, 2105, 9333
15040, 14154, 5884, 15381, 6279, 1433, 8843
15050, 14374, 4897, 15389, 5506, 721, 8101
15060, 13512, 4486, 15253, 3451, -1162, 6184
15070, 13282, 5023, 15027, 2564, -2139, 5610
15080, 12580, 5565, 14817, 2080, -2707, 5406
15090, 11790, 6184, 14419, 2181, -2870, 5778
15100, 10575, 7051, 13702, 3558, -2221, 7638
15110, 9963, 7192, 13299, 4632, -1691, 8515
15120, 9330, 7161, 12740, 5795, -1172, 9186
15130, 8816, 6440, 12002, 7755, -275, 9852
15140, 8539, 5917, 11502, 8579, -251, 9614
15150, 8539, 5393, 10831, 9148, -588, 9229
15160, 8828, 5055, 10541, 9453, -1180, 8750
15170, 8743, 4522, 9745, 9750, -2940, 7003
15180, 8904, 4160, 9830, 9420, -3338, 6470
15190, 8404, 3936, 10170, 9074, -3292, 6138
15200, 7346, 4124, 9929, 8733, -2691, 5902
15210, 7709, 4123, 10521, 8371, -1802, 6179
15220, 8117, 4060, 11160, 8472, -612, 6462
15230, 9114, 4403, 10982, 9153, 1837, 6574
15240, 9467, 4267, 11316, 10177, 3295, 6719
15250, 10209, 4044, 11311, 10638, 4614, 7284
15260, 11879, 3434, 11228, 10951, 6383, 8735
15270, 12472, 3442, 11010, 10646, 6480, 8863
15280, 12677, 3427, 11056, 10011, 6264, 8579
15290, 12278, 3941, 11058, 8411, 5236, 7437
15300, 12220, 4347, 11040, 7637, 4656, 6711
15310, 11951, 4657, 11101, 7017, 4269, 5980
15320, 11615, 4905, 11089, 6751, 4093, 5533
15330, 11453, 4925, 10919, 7111, 4290, 5799
15340, 11553, 4816, 10895, 7484, 4490, 6268
15350, 11534, 4615, 10787, 7904, 4582, 6549
15360, 11891, 3613, 10681, 8078, 4352, 6860
15370, 11982, 3139, 10856, 7685, 3963, 6680
15380, 11491, 2881, 11010, 7068, 3493, 6225
15390, 11313, 3308, 11011, 6418, 2768, 5899
15400, 11349, 3646, 11132, 5327, 2646, 5916
15410, 11323, 4005, 11122, 5079, 2506, 5832
15420, 11432, 4287, 10951, 5059, 2323, 5687
15430, 11545, 4331, 10870, 5376, 2113, 5635
15440, 11489, 4219, 10816, 5754, 2034, 5759
15450, 11790, 3876, 10861, 6195, 2047, 6202
15460, 12024, 3316, 11143, 6391, 2130, 6622
15470, 12580, 2889, 11619, 6202, 1833, 6827
15480, 12655, 2818, 11835, 5801, 1785, 6769
15490, 13316, 3048, 12327, 4980, 1785, 6924
15500, 13763, 3489, 12326, 4857, 1768, 7048
15510, 14046, 4076, 12264, 4811, 1729, 7278
15520, 15514, 5471, 12877, 4525, 1127, 7995
15530, 15930, 6126, 13128, 4397, 469, 7800
15540, 15826, 6381, 13223, 4524, -135, 7387
15550, 15384, 6270, 13200, 4846, -451, 7118
15560, 15014, 5067, 12728, 5866, -410, 7260
15570, 15012, 4232, 12312, 6073, -147, 7466
15580, 14880, 3512, 11943, 5831, 27, 7584
15590, 14722, 4225, 11305, 4485, -246, 7452
15600, 14679, 4999, 11086, 3855, -512, 7242
15610, 14600, 5840, 11180, 3508, -692, 7123
15620, 14459, 6813, 11091, 3869, -773, 7246
15630, 13908, 7658, 10789, 6089, 154, 8403
15640, 13394, 7197, 10709, 7454, 951, 9137
15650, 13532, 6520, 10487, 8661, 1636, 9838
15660, 14090, 4453, 10178, 9337, 2680, 10275
15670, 14133, 4048, 9834, 8911, 2734, 9972
15680, 14183, 3951, 9614, 8149, 2501, 9433
15690, 14211, 4016, 9437, 7307, 2140, 8811
15700, 14115, 4218, 8932, 6168, 1202, 7645
15710, 13794, 4438, 8616, 5920, 814, 7206
15720, 13653, 4552, 8414, 5718, 548, 7027
15730, 12869, 4814, 7610, 5457, 120, 6928
15740, 12341, 5053, 7160, 5092, 66, 7182
15750, 12537, 5177, 7623, 4574, 45, 7587
15760, 12422, 5509, 7985, 4452, 83, 8180
15770, 12387, 5819, 8010, 5401, -74, 8498
15780, 12217, 5791, 8235, 5775, 179, 8915
15790, 12230, 5810, 8374, 6218, 474, 9389
15800, 12346, 5784, 8485, 6696, 601, 9233
15810, 12287, 5825, 8769, 6672, 536, 8723
15820, 12383, 5953, 8885, 6715, 462, 8235
15830, 12526, 5910, 9069, 6787, 464, 7765
15840, 12200, 5645, 9516, 7349, 738, 6694
15850, 11750, 5407, 9499, 7753, 1154, 6208
15860, 11763, 4966, 9517, 7911, 1816, 6004
15870, 12569, 3665, 9796, 7429, 3075, 6195
15880, 13236, 3151, 9970, 6655, 3393, 6356
15890, 13630, 2924, 10284, 5648, 3441, 6389
15900, 14062, 3525, 10359, 4754, 3151, 6228
15910, 13913, 3911, 10287, 3518, 2186, 5847
15920, 13717, 4309, 10290, 3206, 1797, 5905
15930, 13745, 4744, 10345, 3029, 1572, 6231
15940, 13665, 5397, 10615, 2844, 1375, 6711
15950, 13112, 5552, 11118, 1635, 1717, 6108
15960, 13581, 5194, 10985, 479, 1509, 5504
15970, 13505, 5278, 10772, 4, 949, 4709
15980, 13197, 5370, 10616, -411, 173, 3832
15990, 13047, 5665, 10607, -670, -616, 3329
16000, 12445, 6471, 10578, -524, -1688, 2985
16010, 11597, 6399, 10512, -243, -1893, 2724
16020, 10857, 6078, 10743, 43, -1814, 2736
16030, 11473, 6490, 11331, 487, -1539, 3475
16040, 11986, 6930, 11790, 236, -1533, 3330
16050, 12377, 7222, 12183, -277, -1692, 2651
16060, 12157, 7522, 12155, -802, -1888, 1508
16070, 11681, 7734, 11914, -1523, -2095, -702
16080, 11535, 7792, 11902, -1374, -1800, -1281
16090, 11466, 7676, 11818, -704, -1212, -1190
16100, 11869, 7293, 11489, 1263, -163, 28
16110, 11832, 6882, 11701, 1996, 133, 558
16120, 11647, 6787, 11930, 2688, 162, 958
16130, 10847, 7163, 11964, 4216, -105, 1306
16140, 10433, 7171, 11977, 5053, -16, 1571
16150, 10114, 6979, 11892, 5945, 175, 1837
16160, 9723, 6614, 11787, 6883, 448, 2114
16170, 9224, 5478, 11797, 8714, 847, 3200
16180, 9346, 4587, 11772, 9403, 855, 4040
16190, 9188, 2887, 12048, 8758, -340, 4120
16200, 8480, 2444, 11900, 7410, -1509, 2907
16210, 7817, 2502, 11606, 5627, -2790, 1282
16220, 7625, 2726, 11647, 3643, -3657, -327
16230, 6833, 3944, 10948, 856, -3660, -2847
16240, 6941, 4432, 10592, 114, -2927, -3208
16250, 7440, 4807, 10311, -126, -1989, -3135
16260, 8646, 5106, 9765, 150, -529, -3127
16270, 9192, 5126, 9487, 365, -198, -3366
16280, 9525, 5083, 9306, 526, 15, -3601
16290, 9731, 5094, 9276, 647, 88, -3931
16300, 9866, 4927, 9308, 843, 216, -4416
16310, 9882, 4742, 9439, 947, 446, -4402
16320, 9843, 4682, 9559, 1111, 672, -4314
16330, 10329, 4853, 9702, 1560, 833, -4103
16340, 10503, 4967, 9969, 1875, 781, -4089
16350, 10735, 4953, 10353, 2336, 616, -3986
16360, 10898, 4246, 11289, 2886, 407, -3791
16370, 10816, 3921, 11833, 3622, 270, -3482
16380, 10930, 3591, 12291, 3555, 274, -3452
16390, 11058, 3243, 12611, 3240, 314, -3639
16400, 11907, 2358, 13146, 2035, 315, -4333
16410, 12380, 1937, 13350, 1466, 433, -4552
16420, 12860, 1501, 13543, 1018, 540, -4555
16430, 13566, 1009, 13566, 534, 542, -3827
16440, 13963, 1011, 13674, 328, 478, -3011
16450, 14324, 1248, 13837, 107, 155, -2385
16460, 14072, 2055, 14089, -164, -785, -2089
16470, 13777, 2199, 14041, -222, -1109, -2101
16480, 13495, 2163, 14018, -188, -1183, -2006
16490, 13441, 1703, 13971, 216, -873, -1110
16500, 13561, 1624, 14125, 261, -749, -633
16510, 13956, 1859, 14303, 167, -846, -330
16520, 14450, 2344, 14534, -10, -1055, -118
16530, 14926, 3616, 14839, -179, -1469, -95
16540, 14644, 4062, 14706, 47, -1391, 32
16550, 14543, 4442, 14611, 488, -991, 492
16560, 14239, 4843, 14392, 1682, 340, 1752
16570, 14424, 4789, 14153, 2437, 1074, 2329
16580, 14265, 4366, 13700, 3266, 1858, 2806
16590, 14165, 3046, 12797, 3870, 2466, 3205
16600, 14309, 2797, 12399, 3545, 2569, 3792
16610, 14415, 3137, 12096, 2797, 2100, 3868
16620, 14192, 3890, 11749, 1943, 1444, 3518
16630, 12959, 5121, 11175, 906, 325, 2362
16640, 12288, 5632, 10841, 1125, 391, 2497
16650, 12024, 6131, 10605, 1783, 869, 3254
16660, 11965, 6173, 10319, 3691, 2448, 5199
16670, 12046, 5828, 10209, 4617, 3050, 5786
16680, 12244, 4651, 9703, 5389, 3415, 6006
16690, 12246, 4168, 9454, 5194, 3259, 5818
16700, 11892, 3775, 9218, 4710, 3049, 5587
16710, 11557, 3765, 8988, 4063, 2770, 5400
16720, 11456, 4415, 8687, 2951, 2236, 4958
16730, 11204, 4699, 8508, 2805, 2188, 4785
16740, 11104, 5042, 8248, 2908, 2206, 4805
16750, 11096, 5310, 7958, 3544, 2239, 5379
16760, 10974, 5236, 7838, 3955, 2042, 5513
16770, 10853, 5174, 7746, 4290, 1729, 5483
16780, 10378, 4963, 8007, 4401, 1590, 5458
16790, 10204, 5014, 8786, 4404, 1523, 5480
16800, 10408, 5093, 9175, 4369, 1609, 5364
16810, 10491, 5115, 9405, 4469, 1898, 5289
16820, 10785, 4728, 9321, 5103, 2985, 6046
16830, 11217, 4486, 9252, 5204, 3339, 6548
16840, 11593, 4290, 9261, 4950, 3347, 6709
16850, 11762, 4206, 9243, 4518, 2935, 6478
16860, 11117, 4567, 9187, 3279, 1504, 5131
16870, 10816, 4777, 9307, 2746, 918, 4570
16880, 10505, 4975, 9554, 2489, 581, 4311
16890, 10540, 4883, 10182, 2022, 939, 3666
16900, 10707, 4735, 10372, 1398, 813, 2543
16910, 10791, 4560, 10495, 1162, 729, 2111
16920, 10957, 4461, 10571, 1006, 617, 1808
16930, 11199, 4430, 10706, 893, 482, 1641
16940, 11837, 4711, 11332, 577, 250, 1416
16950, 12080, 4810, 11676, 276, 207, 1257
16960, 12224, 4963, 11936, -98, 99, 928
16970, 12707, 4871, 11925, -907, -211, 290
16980, 12503, 4731, 11863, -1211, -341, 24
16990, 12321, 4912, 11782, -1457, -536, -102
17000, 13266, 6014, 12427, -1867, -965, 74
17010, 13268, 6159, 12700, -1844, -995, -20
17020, 13018, 6001, 12896, -1600, -1032, -330
17030, 13039, 6261, 13711, -894, -958, -569
17040, 13515, 6447, 13944, -426, -514, -45
17050, 14074, 6241, 14101, -74, -3, 400
17060, 14392, 5589, 14065, 59, 161, 275
17070, 14048, 3890, 13270, -419, -720, -935
17080, 13944, 3559, 13153, -1036, -1467, -1294
17090, 13605, 3845, 13074, -1684, -2233, -1405
17100, 12716, 5759, 12669, -2478, -3774, -1383
17110, 11797, 6090, 13074, -2719, -3872, -1045
17120, 11547, 6330, 13067, -2283, -4092, -852
17130, 11558, 6984, 11631, -539, -3996, -259
17140, 11314, 7081, 11936, 83, -2740, 518
17150, 11177, 6331, 12416, 847, -1593, 1510
17160, 11051, 5536, 11720, 3208, -738, 2606
17170, 11059, 5417, 10980, 3579, -413, 2931
17180, 10938, 4563, 11430, 2943, -35, 3027
17190, 11157, 4268, 10970, 2080, -869, 2415
17200, 10947, 4082, 10596, 1503, -1332, 1998
17210, 10460, 3960, 10402, 916, -1642, 1923
17220, 10033, 4005, 10102, 506, -1964, 2048
17230, 8928, 4057, 9411, -213, -2251, 2299
17240, 8824, 4604, 9319, -476, -2390, 2307
17250, 8395, 4998, 9222, -536, -2524, 1927
17260, 8025, 5792, 8984, -153, -2663, 1068
17270, 8202, 6028, 8954, 48, -2500, 710
17280, 8195, 6080, 8803, 432, -2248, 280
17290, 8505, 5772, 8507, 1164, -1913, -573
17300, 8802, 5458, 8475, 1472, -1889, -900
17310, 8756, 5171, 8606, 1668, -1882, -1128
17320, 8815, 5206, 8907, 1862, -2019, -1315
17330, 8748, 5440, 9680, 2183, -2213, -1945
17340, 8817, 5595, 10028, 2396, -2115, -2243
17350, 8999, 5469, 10135, 2566, -1921, -2615
17360, 9205, 4828, 10137, 2470, -1724, -3804
17370, 9569, 4561, 10160, 2172, -1865, -4293
17380, 9825, 4496, 10265, 1955, -2013, -4662
17390, 10712, 4018, 10492, 2069, -2019, -4948
17400, 10900, 3313, 10822, 2119, -1690, -4785
17410, 11354, 2897, 11239, 2082, -1560, -4749
17420, 11444, 2997, 11783, 2154, -1328, -5134
17430, 12037, 3094, 11968, 2224, -1166, -4905
17440, 13491, 3095, 12356, 2298, -931, -4252
17450, 14251, 2853, 13334, 2567, -603, -3552
17460, 14349, 2624, 13496, 3655, -695, -2611
17470, 14847, 2113, 13623, 3887, -479, -1698
17480, 15034, 1833, 14250, 3613, 20, -753
17490, 16196, 3057, 15499, 1471, -629, -1164
17500, 16763, 3964, 15863, 97, -1589, -2753
17510, 17021, 4572, 15903, -786, -2241, -4298
17520, 17004, 4856, 15818, -919, -2418, -5086
17530, 16836, 4001, 14989, 85, -1802, -4542
17540, 16442, 2642, 14540, 733, -1363, -3690
17550, 16152, 1622, 13963, 1161, -1361, -2881
17560, 15527, 1143, 13418, 982, -1861, -2486
17570, 15099, 1982, 13293, -1140, -3645, -2673
17580, 14570, 2766, 13563, -2141, -4391, -3219
17590, 12988, 4400, 13178, -1997, -4442, -3297
17600, 12306, 4553, 13018, -1335, -3746, -2617
17610, 11907, 4370, 12752, -401, -2890, -1667
17620, 11538, 3881, 12575, 397, -2016, -655
17630, 10927, 2815, 12141, 846, -962, 770
17640, 10764, 2651, 12028, 445, -942, 944
17650, 10647, 2770, 12116, -192, -1118, 871
17660, 10526, 3559, 12499, -1381, -1226, 860
17670, 10455, 4064, 12676, -1653, -1032, 994
17680, 10424, 4448, 12745, -1729, -619, 1306
17690, 10411, 4508, 12595, -1686, -19, 1764
17700, 10380, 3821, 11901, -1980, 893, 2326
17710, 10498, 3430, 11583, -2535, 837, 2206
17720, 10599, 3106, 11313, -3310, 570, 1997
17730, 10526, 2975, 11166, -4119, 174, 1741
17740, 9959, 3088, 10650, -5413, -538, 1368
17750, 10197, 3268, 10641, -5965, -697, 1459
17760, 10501, 3438, 10861, -6488, -886, 1334
17770, 10245, 3725, 10665, -6777, -1028, 653
17780, 10196, 3828, 10278, -6754, -895, 667
17790, 10411, 3822, 10155, -6892, -654, 873
17800, 10476, 3715, 10210, -6983, -430, 979
17810, 10197, 3735, 10043, -6662, -374, 1055
17820, 9926, 3823, 10401, -5479, -147, 1196
17830, 9963, 3556, 10441, -5545, 38, 1004
17840, 10086, 3081, 10523, -6249, 468, 666
17850, 9782, 3035, 10731, -6858, 849, 611
17860, 9420, 3167, 10990, -7314, 1691, 974
17870, 11447, 4419, 10835, -6231, 3789, 3023
17880, 11115, 4580, 11000, -5202, 4478, 2966
17890, 12072, 5040, 9943, -4082, 4395, 2556
17900, 12362, 4988, 9529, -4030, 3895, 1731
17910, 12291, 4260, 10236, -5446, 1888, -747
17920, 11989, 4334, 10353, -5750, 723, -1969
17930, 11644, 4261, 10287, -5805, -12, -2819
17940, 11453, 4112, 10732, -5596, -460, -3430
17950, 12110, 4494, 11167, -5189, -517, -3083
17960, 12988, 4952, 11774, -4670, -454, -2379
17970, 14046, 5487, 13334, -3735, -629, -1718
17980, 14317, 5656, 13936, -3628, -866, -1993
17990, 14332, 5738, 14417, -3756, -1045, -2489
18000, 14102, 5810, 14541, -4082, -1191, -3124
18010, 13756, 5613, 14150, -5219, -1812, -5022
18020, 13888, 5477, 13913, -5742, -2223, -5894
18030, 14000, 5750, 13954, -6153, -2638, -6553
18040, 13795, 6599, 13821, -6002, -3175, -7414
18050, 13259, 6631, 13519, -5478, -3120, -7646
18060, 12656, 6580, 13207, -4750, -2957, -7680
18070, 11576, 6247, 12640, -2950, -2381, -7221
18080, 11422, 5909, 12268, -1908, -2024, -6720
18090, 11235, 5359, 12093, -948, -1641, -6111
18100, 11060, 4438, 11738, 662, -1576, -5260
18110, 10667, 3960, 11404, 1210, -1762, -5070
18120, 10168, 3531, 11053, 1549, -2026, -5067
18130, 9639, 3265, 10695, 1685, -2396, -5246
18140, 8700, 2710, 9966, 1531, -2952, -5899
18150, 8348, 2489, 9745, 1270, -3110, -6243
18160, 8193, 2504, 9557, 1073, -3267, -6571
18170, 8384, 2770, 9270, 944, -3319, -7034
18180, 8228, 2777, 9254, 1091, -3121, -7116
18190, 8569, 2745, 9273, 1383, -2865, -7011
18200, 8735, 2357, 9687, 2154, -1754, -6252
18210, 8824, 2361, 9797, 2402, -1321, -5758
18220, 9313, 2513, 9958, 2360, -1134, -5609
18230, 9917, 2547, 10248, 2163, -1057, -5911
18240, 10391, 2597, 10177, 1868, -1240, -7160
18250, 11315, 2380, 10569, 1492, -1195, -7438
18260, 11546, 2129, 11084, 1396, -1069, -7702
18270, 12413, 2083, 11070, 1862, -1080, -7647
18280, 12703, 1834, 11350, 2005, -894, -7315
18290, 12791, 1491, 11593, 2175, -821, -6950
18300, 13132, 1036, 11780, 2476, -1346, -6348
18310, 13334, 809, 12026, 2486, -1637, -6107
18320, 13349, 577, 12322, 2494, -1913, -5972
18330, 12997, 159, 12577, 2570, -2354, -5542
18340, 12970, 82, 12669, 2560, -2521, -5207
18350, 13041, -13, 12767, 2462, -2631, -4892
18360, 13091, -90, 12903, 2248, -2771, -4663
18370, 13003, 47, 13182, 1503, -3326, -4556
18380, 13618, 102, 13943, 970, -3542, -4218
18390, 13880, 455, 14987, 585, -3729, -3851
18400, 14352, 270, 15937, 209, -3772, -2943
18410, 13722, 394, 15595, -785, -3880, -3601
18420, 13484, 862, 15007, -2520, -4186, -4913
18430, 12911, 1805, 14668, -4098, -4291, -6278
18440, 13717, 2830, 13989, -4313, -3637, -6032
18450, 13882, 3274, 13826, -2955, -2801, -4424
18460, 13685, 3296, 13788, -1250, -1910, -2147
18470, 13969, 3465, 14345, 750, -1476, 1155
18480, 13945, 3311, 15192, 530, -2081, 1006
18490, 13457, 3213, 15659, 8, -2745, 165
18500, 12796, 3598, 15973, -1884, -2752, -1183
18510, 12749, 3870, 15796, -3032, -2321, -1720
18520, 12983, 4006, 15176, -4011, -1746, -2093
18530, 13076, 3883, 14124, -5382, -755, -2282
18540, 12814, 3927, 13637, -5606, -392, -1889
18550, 12558, 4027, 13406, -5649, -152, -1317
18560, 12115, 3872, 13154, -5476, -23, -505
18570, 11790, 3757, 13136, -5244, -46, -193
18580, 11288, 3528, 13164, -4958, -44, 78
18590, 10460, 3301, 13317, -4287, 252, 898
18600, 10072, 3191, 13411, -3794, 761, 1635
18610, 9920, 3125, 13449, -3127, 1529, 2588
18620, 9866, 2842, 13147, -2433, 2428, 3597
18630, 10218, 2449, 12816, -2098, 3875, 5046
18640, 10301, 2527, 12683, -2428, 4151, 5095
18650, 10382, 2931, 12712, -2926, 4127, 4787
18660, 10000, 3650, 12436, -3257, 4354, 4060
18670, 9945, 3731, 11956, -2820, 4940, 4470
18680, 10400, 3508, 11638, -2504, 5518, 5197
18690, 11193, 2990, 11296, -2631, 5233, 5189
18700, 11273, 3020, 11068, -2920, 4489, 4634
18710, 11024, 3054, 11006, -3339, 3644, 4031
18720, 10784, 3194, 10950, -3655, 2869, 3616
18730, 10077, 2829, 11469, -2845, 1691, 4253
18740, 9856, 2642, 11436, -2990, 1500, 4009
18750, 9773, 2551, 11389, -3451, 1204, 3504
18760, 9389, 2847, 11053, -4603, 754, 2203
18770, 9121, 2977, 10901, -5060, 659, 1628
18780, 9250, 3203, 10725, -5260, 592, 1140
18790, 8771, 3570, 10468, -4885, 701, 71
18800, 8490, 3568, 10376, -4407, 869, -54
18810, 8360, 3724, 10175, -3839, 1160, 158
18820, 8505, 3713, 10310, -3449, 1486, 432
18830, 9218, 3636, 10728, -2926, 1963, 275
18840, 9323, 3716, 10856, -2775, 2095, -187
18850, 9820, 3870, 11046, -2677, 2136, -538
18860, 10714, 3879, 11408, -2569, 2115, -1415
18870, 11373, 3655, 11601, -2475, 2000, -1854
18880, 11584, 2990, 11594, -2521, 1740, -2479
18890, 11308, 2789, 11501, -2787, 1287, -3219
18900, 10454, 2944, 11344, -3347, 418, -3790
18910, 10104, 3299, 11340, -3540, 133, -3406
18920, 10111, 3600, 11540, -3649, -329, -3021
18930, 10111, 5032, 12343, -3195, -1018, -2809
18940, 10400, 5669, 13002, -2768, -992, -2565
18950, 10827, 6038, 13849, -2334, -716, -2335
18960, 12192, 6433, 15185, -1757, -41, -2602
18970, 12799, 6071, 15726, -1984, 99, -3143
18980, 13032, 5565, 15814, -2237, -92, -4151
18990, 12537, 4577, 15190, -3162, -952, -6696
19000, 12779, 4350, 14883, -3854, -1377, -7322
19010, 13056, 4417, 14816, -4532, -1716, -7638
19020, 12650, 4811, 14243, -4835, -2602, -8205
19030, 12300, 5049, 13880, -4388, -2779, -7810
19040, 12148, 5102, 13759, -3642, -2842, -7040
19050, 11252, 5127, 12996, -1481, -2799, -5280
19060, 10924, 5025, 12707, -521, -2775, -4381
19070, 10336, 4994, 12524, 283, -2871, -3857
19080, 9755, 4860, 12235, 862, -3232, -3781
19090, 8895, 4461, 11759, 1418, -4025, -3997
19100, 8590, 4347, 11648, 1476, -4435, -4403
19110, 8285, 4368, 11347, 1483, -4841, -5014
19120, 8170, 4695, 10597, 1765, -5112, -5932
19130, 8102, 4443, 10476, 2076, -4787, -6050
19140, 7998, 4084, 10444, 2502, -4364, -6017
19150, 8144, 3807, 10460, 3120, -3910, -5787
19160, 8760, 3082, 11031, 4214, -2262, -4135
19170, 9146, 2932, 11071, 4564, -1791, -3517
19180, 9573, 3381, 11450, 4562, -1548, -3875
19190, 9353, 3758, 11465, 4870, -1299, -4469
19200, 9215, 3965, 11170, 5575, -859, -4669
19210, 9634, 3391, 11021, 6424, -228, -4612
19220, 9770, 2879, 11212, 6507, -169, -4601
19230, 9791, 2603, 11449, 6592, -181, -4461
19240, 9989, 2475, 11613, 6675, -299, -4244
19250, 10196, 2221, 12062, 6746, -390, -3829
19260, 10316, 1987, 12248, 6764, -434, -3702
19270, 10285, 1775, 12439, 6689, -513, -3757
19280, 10301, 1265, 12812, 6399, -848, -4125
19290, 10388, 1060, 13033, 6241, -975, -4272
19300, 10155, 970, 13213, 6182, -1029, -4436
19310, 10439, 1134, 13490, 6069, -1117, -4285
19320, 10792, 1121, 13764, 5851, -1081, -4095
19330, 11038, 950, 14131, 5490, -1079, -3993
19340, 11401, 898, 14361, 4919, -1211, -4023
19350, 11573, 1028, 14869, 3180, -1783, -4655
19360, 11730, 1081, 14928, 2333, -2096, -5012
19370, 12053, 1069, 15067, 1610, -2245, -5267
19380, 12080, 1039, 14757, 575, -2553, -5675
19390, 12622, 1245, 14952, -266, -2679, -5539
19400, 13206, 1664, 15388, -1337, -2984, -5683
19410, 13892, 3275, 16141, -3007, -3720, -6598
19420, 13801, 3801, 16432, -3290, -3581, -6781
19430, 13823, 4095, 16516, -3138, -3179, -6529
19440, 14567, 4277, 16918, -2490, -1746, -4823
19450, 15131, 4159, 16993, -2200, -1062, -4035
19460, 15465, 3658, 16979, -1946, -499, -3514
19470, 15730, 2798, 16803, -1934, -46, -2979
19480, 15593, 1701, 16205, -2990, 132, -1933
19490, 15672, 1845, 15886, -4085, -189, -1593
19500, 15487, 2410, 15508, -5349, -715, -1671
19510, 14619, 4038, 14663, -7129, -1608, -2247
19520, 14195, 4595, 14160, -7090, -1565, -1912
19530, 14030, 5006, 13712, -6593, -1318, -1192
19540, 13037, 5021, 12981, -4631, -455, 473
19550, 12287, 4746, 12584, -3369, 165, 1645
19560, 12124, 4416, 12328, -2140, 839, 2949
19570, 11641, 4109, 12074, -907, 1670, 4247
19580, 11393, 3402, 11441, 663, 2712, 6185
19590, 11422, 3230, 11221, 1021, 2957, 6731
19600, 11348, 3203, 11068, 1306, 3069, 6942
19610, 10966, 3347, 10953, 1701, 3087, 6975
19620, 10621, 3089, 10362, 2744, 3614, 7834
19630, 11987, 99, 11531, 2563, 7906, 15314
19640, 13098, 300, 11088, 1769, 7919, 16284
19650, 13568, 915, 10895, -1287, 5619, 13380
19660, 13029, 1848, 10324, -2544, 3947, 11045
19670, 12489, 2519, 9940, -3356, 2693, 9352
19680, 11771, 3384, 9487, -3832, 1872, 8330
19690, 11619, 3716, 9220, -3782, 705, 7148
19700, 11297, 3848, 9051, -3274, 593, 7053
19710, 11436, 3469, 9193, -1968, 613, 7408
19720, 11765, 3143, 9368, -1297, 669, 7851
19730, 11858, 2104, 10132, -646, 939, 8702
19740, 11414, 1963, 10337, -768, 1044, 8770
19750, 10953, 2327, 10312, -1212, 960, 8460
19760, 10681, 3455, 10220, -1954, 693, 7819
19770, 10706, 4090, 10190, -3218, 231, 6042
19780, 10716, 4448, 9994, -3181, 132, 5276
19790, 10665, 4563, 9523, -2687, 172, 4861
19800, 10658, 4220, 9138, -1640, 305, 4873
19810, 10747, 3963, 9167, -1296, 107, 4780
19820, 10656, 3915, 9310, -1033, -162, 4471
19830, 10334, 4108, 10041, -767, -359, 4225
19840, 10296, 4454, 10220, -588, -518, 3863
19850, 10364, 4570, 10519, -314, -581, 3467
19860, 10427, 4601, 10844, 162, -517, 3222
19870, 11158, 4521, 11340, 1200, -276, 3117
19880, 11234, 4334, 11755, 1287, -178, 2979
19890, 12216, 5700, 12853, 1035, -700, 2544
19900, 12732, 6224, 13416, 864, -920, 1901
19910, 12591, 6298, 13939, 923, -912, 1067
19920, 12780, 6770, 14257, 1594, -846, -171
19930, 12827, 6644, 14441, 1827, -747, -844
19940, 12560, 6178, 14390, 2120, -599, -1607
19950, 12046, 5371, 14049, 2502, -412, -2339
19960, 12029, 4203, 13823, 3131, -166, -2592
19970, 12220, 4205, 14020, 3254, -165, -2473
19980, 12514, 4334, 14313, 3423, -409, -2470
19990, 12703, 4474, 14520, 3763, -670, -2500
20000, 12296, 4044, 14358, 5139, -576, -1769
20010, 11506, 3556, 14280, 5776, -316, -966
20020, 11675, 3140, 14119, 6263, -171, -89
20030, 10600, 2593, 13807, 6693, 30, 570
20040, 10218, 2288, 13456, 6591, -149, 498
20050, 9885, 1911, 13151, 6249, -251, 398
20060, 9523, 1442, 12871, 5802, -393, 187
20070, 8766, 970, 11918, 4695, -1139, -529
20080, 8212, 1005, 11657, 3927, -1450, -845
20090, 7641, 1398, 11448, 3191, -1647, -1121
20100, 7236, 2548, 10960, 2242, -1658, -1702
20110, 7287, 2972, 10852, 2080, -1407, -2016
20120, 7580, 3242, 10775, 2164, -1089, -2187
20130, 8245, 3568, 10585, 3045, -417, -2327
20140, 8521, 3566, 10581, 3591, -185, -2317
20150, 8602, 3270, 10824, 3827, 117, -2199
20160, 9256, 3251, 11273, 3980, 391, -2027
20170, 9545, 3288, 11265, 3938, 352, -2348
20180, 9668, 3279, 11263, 3797, 220, -2852
20190, 9713, 3659, 11108, 3675, 48, -3323
20200, 9989, 3590, 11122, 3811, -54, -3579
20210, 10215, 3600, 11129, 4177, 13, -3330
20220, 10331, 3501, 11313, 4509, 64, -3002
20230, 10591, 3243, 11737, 5191, 112, -2296
20240, 10731, 3088, 12078, 5346, 142, -2022
20250, 10815, 2918, 12370, 5347, 21, -2077
20260, 10801, 2377, 12646, 5298, -169, -2334
20270, 10862, 2090, 12808, 5059, -430, -2634
20280, 10982, 1844, 12978, 4888, -457, -2617
20290, 11109, 1641, 13056, 4738, -534, -2607
20300, 11331, 1362, 13294, 4295, -916, -2633
20310, 11539, 1210, 13612, 4020, -1177, -2702
20320, 11900, 974, 13911, 3884, -1335, -2695
20330, 11933, 353, 14007, 4212, -741, -1825
20340, 12575, -335, 14696, 4081, -90, -596
20350, 13323, -740, 15169, 3892, 824, 721
20360, 13514, 245, 14126, 2900, 891, 1131
20370, 14450, 1129, 14387, 1320, 87, 677
20380, 14979, 2517, 14976, -52, -821, 43
20390, 16011, 5147, 14765, -684, -2404, -1074
20400, 15371, 5480, 15396, 125, -2840, -1269
20410, 15039, 5526, 15542, 1834, -3279, -834
20420, 14789, 5308, 15274, 3657, -3430, 38
20430, 14287, 3309, 15638, 5445, -2499, 2217
20440, 13820, 2676, 15379, 5547, -2320, 2732
20450, 13373, 2721, 14955, 4855, -2388, 2569
20460, 11966, 3873, 14296, 2270, -2471, 839
20470, 11457, 4536, 13731, 1329, -2307, 27
20480, 11145, 5220, 13267, 839, -1795, -324
20490, 10762, 5915, 12788, 1032, -1034, -218
20500, 10264, 6251, 11769, 2852, 892, 1251
20510, 10407, 5936, 11488, 4091, 1961, 2478
20520, 10806, 5379, 11339, 5171, 2809, 3634
20530, 11771, 4120, 11449, 5700, 3116, 4315
20540, 11791, 3497, 11667, 5262, 2785, 3991
20550, 11720, 2960, 11693, 4547, 2268, 3605
20560, 11358, 2515, 11460, 3672, 1727, 3099
20570, 10281, 2442, 9072, -2218, 98, 622
20580, 10164, 3015, 8477, -2570, 87, 591
20590, 10251, 3315, 8278, -2009, 500, 1486
20600, 10322, 3487, 8258, -1434, 762, 2172
20610, 10372, 3577, 8474, -774, 1034, 2903
20620, 10598, 3703, 8959, 706, 1427, 4101
20630, 10651, 3499, 9071, 1199, 1491, 4317
20640, 10615, 3288, 9314, 1320, 1424, 4163
20650, 10497, 3341, 9605, 1267, 1270, 3780
20660, 10547, 3379, 9575, 1467, 1182, 3170
20670, 10874, 3251, 9628, 1727, 1451, 3268
20680, 11163, 3013, 9706, 1993, 1826, 3597
20690, 12022, 3033, 10257, 2018, 2069, 4139
20700, 12255, 3199, 10589, 1888, 2031, 4179
20710, 12214, 3451, 10722, 1924, 1899, 4093
20720, 12155, 3804, 10815, 2084, 1818, 4074
20730, 12256, 3678, 10788, 2578, 2030, 4405
20740, 12368, 3362, 10749, 2738, 2082, 4534
20750, 12513, 3066, 10803, 2635, 1835, 4351
20760, 12948, 2922, 11510, 2146, 1107, 3856
20770, 13249, 2883, 11942, 2044, 955, 3950
20780, 13512, 2899, 12332, 1953, 951, 4191
20790, 13978, 2995, 12757, 1741, 1140, 4902
20800, 14245, 2947, 12909, 1362, 1189, 5148
20810, 14188, 2696, 12687, 303, 702, 4723
20820, 14063, 3014, 12569, -353, 204, 4339
20830, 14050, 3629, 12652, -904, -265, 4112
20840, 13936, 4457, 12776, -1200, -640, 4018
20850, 12962, 5555, 12801, -1424, -1625, 2970
20860, 12758, 6064, 13125, -1299, -1917, 2585
20870, 13050, 6733, 13688, -1021, -1916, 2594
20880, 14304, 7205, 14230, -77, -1381, 2785
20890, 14730, 6229, 14196, 94, -1118, 2511
20900, 14627, 5247, 14030, -114, -1111, 1821
20910, 14547, 4973, 13600, -1859, -1904, 519
20920, 14404, 5340, 13392, -2745, -2208, 157
20930, 14038, 5907, 12771, -3091, -2377, 65
20940, 13798, 6377, 11969, -3004, -2435, 273
20950, 13078, 6376, 11340, -2140, -2495, 843
20960, 12304, 6369, 10757, -1092, -2586, 1273
20970, 11499, 6146, 10342, 9, -2406, 2063
20980, 10345, 5575, 10114, 1797, -1847, 3623
20990, 9749, 5319, 9923, 2480, -1735, 3848
21000, 9228, 4920, 9722, 2959, -1622, 3854
21010, 8737, 4455, 9521, 3269, -1479, 3849
21020, 8294, 3774, 9134, 3626, -1257, 3812
21030, 8167, 3543, 8983, 3696, -1233, 3600
21040, 7930, 3364, 8692, 3678, -1213, 3003
21050, 8006, 3483, 8613, 3544, -1258, 2721
21060, 7823, 3613, 8788, 3245, -1224, 2344
21070, 7825, 4548, 9290, 2967, -1278, 1117
21080, 7729, 4765, 9590, 2853, -1005, 607
21090, 7914, 4964, 9834, 2990, -624, 242
21100, 8400, 5002, 9947, 3275, -220, -42
21110, 9140, 4340, 10096, 4043, 632, -370
21120, 9297, 4060, 9942, 4345, 830, -554
21130, 9572, 3791, 9900, 4396, 855, -732
21140, 10192, 3844, 10157, 4077, 462, -1414
21150, 10196, 4129, 10339, 3960, 246, -1882
21160, 10269, 4469, 10526, 4034, 189, -2165
21170, 10500, 4671, 11020, 4373, 327, -2212
21180, 10795, 4590, 11220, 5480, 809, -1846
21190, 10966, 4230, 11404, 5923, 975, -1721
21200, 11147, 3690, 11559, 6161, 1003, -1751
21210, 11620, 2761, 11830, 6008, 695, -2219
21220, 11579, 2333, 11886, 5760, 501, -2502
21230, 11547, 2050, 11978, 5408, 376, -2595
21240, 11954, 1735, 12410, 4938, 196, -2318
21250, 12095, 1571, 12646, 4851, 233, -1979
21260, 12200, 1400, 12827, 4780, 301, -1548
21270, 12520, 1092, 13048, 4160, 281, -809
21280, 12687, 1107, 13132, 3523, 2, -820
21290, 12868, 1301, 13135, 2796, -440, -1095
21300, 13187, 2504, 13491, 1148, -1393, -1953
21310, 13374, 3348, 13710, 554, -1638, -2273
21320, 13586, 4120, 13916, 234, -1659, -2469
21330, 14007, 5190, 14107, 548, -1319, -2436
21340, 14265, 5381, 14311, 1043, -989, -2232
21350, 14533, 5312, 14481, 1585, -632, -2019
21360, 14665, 4970, 14489, 2083, -303, -1910
21370, 14154, 3428, 14006, 2714, 116, -1999
21380, 13881, 2580, 13600, 2771, 91, -1978
21390, 13837, 2026, 13419, 2536, 3, -1768
21400, 13676, 2537, 13250, 1484, -433, -1347
21410, 13760, 3278, 13262, 793, -700, -1400
21420, 13517, 3941, 13218, 339, -898, -1748
21430, 13149, 4919, 12994, 614, -453, -1481
21440, 13202, 5135, 13000, 1368, 129, -642
21450, 13125, 5049, 12815, 2545, 836, 480
21460, 13032, 4488, 12430, 3678, 1529, 1741
21470, 13144, 2824, 12031, 4279, 1798, 3086
21480, 12730, 2585, 11793, 3731, 1291, 2950
21490, 12283, 2829, 11592, 2882, 608, 2598
21500, 10529, 4664, 10504, 1161, 232, 2605
21510, 10284, 4716, 10088, 1421, 695, 2941
21520, 10244, 4555, 9760, 1701, 1125, 3388
21530, 10409, 4165, 9334, 1827, 1342, 3814
21540, 10365, 4011, 9248, 1655, 1167, 3647
21550, 10102, 3873, 9329, 1305, 914, 3313
21560, 9939, 3944, 9389, 995, 745, 3049
21570, 10144, 4401, 9659, 502, 974, 2972
21580, 10458, 4669, 9825, 364, 1164, 2900
21590, 10517, 4711, 9822, 385, 1378, 2791
21600, 10681, 4695, 9715, 470, 1635, 2860
21610, 10981, 4078, 9624, 443, 2092, 3282
21620, 11080, 3805, 9418, 221, 1921, 3262
21630, 10924, 3846, 9338, -256, 1466, 3000
21640, 10743, 4893, 9883, -1339, 325, 2020
21650, 10622, 5241, 10098, -1488, -17, 1574
21660, 10491, 5295, 10370, -1427, -134, 1318
21670, 10401, 5206, 10477, -1192, -86, 1338
21680, 10241, 4448, 10347, -917, 312, 1599
21690, 10156, 3970, 10277, -1124, 408, 1526
21700, 10136, 3906, 10332, -1466, 321, 1278
21710, 10630, 4871, 11131, -2367, 33, 676
21720, 10969, 5404, 11582, -2523, -22, 450
21730, 11465, 5823, 11962, -2489, -23, 368
21740, 12062, 5597, 12152, -2342, -7, -55
21750, 12030, 5116, 11974, -2497, -187, -481
21760, 11735, 4185, 11513, -2842, -473, -989
21770, 11430, 4181, 11603, -3416, -1113, -1584
21780, 11322, 4667, 11890, -3394, -1331, -1367
21790, 11665, 5540, 12465, -3185, -1375, -840
21800, 12398, 7150, 13769, -2544, -972, -294
21810, 12867, 7426, 14108, -2357, -871, -663
21820, 13077, 7377, 14137, -2287, -810, -1308
21830, 12477, 6225, 13436, -2302, -872, -2600
21840, 11785, 5366, 12870, -2281, -1040, -3028
21850, 11317, 4919, 12638, -2269, -1319, -3122
21860, 11214, 5144, 12934, -2439, -1698, -3158
21870, 11247, 5918, 13767, -3170, -2324, -3914
21880, 11211, 6251, 14037, -3442, -2264, -4320
21890, 11630, 6539, 14193, -3627, -1993, -4467
21900, 11956, 6919, 13814, -3160, -1096, -4062
21910, 11498, 7044, 13347, -2566, -771, -3826
21920, 11176, 6837, 12955, -1869, -487, -3473
21930, 10637, 5807, 12517, -1069, -43, -2755
21940, 10717, 5111, 12294, 507, -390, -2417
21950, 10227, 4463, 12184, 1118, -762, -2228
21960, 9500, 3942, 11970, 1562, -1323, -2051
21970, 8227, 3308, 12147, 1811, -1900, -1006
21980, 7493, 3119, 12102, 1835, -1901, -670
21990, 6459, 3015, 12053, 1682, -1228, -312
22000, 6087, 2896, 11697, 1622, -954, -219
22010, 6406, 3210, 11447, 1508, -717, -125
22020, 6064, 3112, 11142, 979, -356, -636
22030, 6459, 3566, 10864, 638, -429, -954
22040, 6106, 3758, 10884, -51, -905, -2196
22050, 6023, 3857, 11253, -803, -1612, -3602
22060, 6225, 4539, 11258, -1181, -2200, -4896
22070, 6395, 4508, 11461, -1367, -1681, -4714
22080, 6778, 4461, 12209, -1593, -693, -4213
22090, 8012, 4519, 12304, -723, 1460, -3343
22100, 8353, 4288, 12265, -427, 2628, -3076
22110, 8585, 4161, 12104, -333, 3257, -2991
22120, 9507, 3950, 11943, -399, 3364, -2919
22130, 10837, 3568, 12060, -1220, 1971, -4042
22140, 10832, 3422, 12488, -1857, 676, -5099
22150, 10416, 3150, 12850, -2165, -417, -5804
22160, 9845, 2331, 13287, -2072, -1351, -5833
22170, 9508, 1798, 13495, -1813, -1390, -5603
22180, 9389, 1568, 13806, -1483, -1152, -5127
22190, 9543, 1736, 14106, -1143, -786, -4616
22200, 9902, 1796, 14750, -361, 284, -3687
22210, 10113, 1631, 14973, 11, 558, -3599
22220, 10434, 1225, 15314, 512, 925, -3322
22230, 10932, 1111, 15698, 457, 1120, -2886
22240, 11360, 912, 16129, 233, 1088, -2704
22250, 11584, 779, 16364, 15, 865, -2756
22260, 11942, 1107, 16984, -653, 258, -2751
22270, 12626, 1342, 17404, -1343, -196, -2924
22280, 12809, 1171, 17784, -2077, -708, -3548
22290, 12492, 1176, 17622, -3159, -2125, -5022
22300, 12649, 1318, 17519, -3690, -2578, -5144
22310, 12600, 1184, 17421, -4111, -2773, -4961
22320, 12354, 666, 16763, -4204, -2822, -4569
22330, 11849, 437, 16295, -3972, -2890, -3710
22340, 11838, 576, 16189, -4111, -3099, -3499
22350, 11165, 990, 16113, -4503, -3354, -3525
22360, 10596, 2533, 15857, -5122, -3964, -3623
22370, 9526, 3352, 15916, -5086, -3417, -3072
22380, 9214, 4041, 15810, -4714, -2389, -1957
22390, 9263, 4444, 15846, -4050, -1038, -798
22400, 10219, 3883, 15331, -1825, 1748, 1594
22410, 11204, 2949, 15678, -787, 2660, 2650
22420, 9986, 3345, 14778, -1844, 966, 2284
22430, 9621, 3393, 14489, -1960, 1165, 2353
22440, 9151, 3442, 14081, -1890, 1775, 2813
22450, 9084, 2779, 13714, -1942, 2733, 4104
22460, 9455, 2308, 13164, -1994, 2850, 4921
22470, 9304, 2250, 12613, -2227, 2665, 5573
22480, 8438, 2630, 12508, -3119, 1619, 5534
22490, 7613, 2241, 12948, -3409, 1247, 5290
22500, 7285, 2852, 12646, -3162, 1095, 5145
22510, 7249, 3064, 11886, -3212, 1596, 5218
22520, 7050, 2537, 12375, -3692, 3063, 5968
22530, 8677, 2336, 11997, -2527, 2603, 6688
22540, 9044, 2931, 11060, -1851, 2734, 7228
22550, 8558, 1823, 11572, -2366, 3860, 8073
22560, 7281, 1617, 12466, -2881, 4687, 8771
22570, 6759, 2212, 12258, -2913, 4889, 8549
22580, 7201, 3164, 11788, -2905, 5033, 8058
22590, 7623, 3670, 11482, -2962, 5468, 7470
22600, 7754, 3316, 11185, -2813, 5640, 6034
22610, 7751, 3328, 11053, -2733, 5103, 5321
22620, 7595, 3220, 11164, -2785, 4616, 4659
22630, 6573, 2064, 11964, -2770, 3687, 3810
22640, 7320, 2437, 12643, -2472, 3338, 3895
22650, 8308, 2714, 12636, -2260, 3159, 3209
22660, 8740, 2624, 12738, -2763, 3670, 279
22670, 8662, 2480, 12567, -2536, 3166, -1300
22680, 8378, 2543, 12451, -2132, 2085, -2691
22690, 8595, 2712, 13426, -1910, 87, -4492
22700, 8078, 2813, 13375, -1761, -345, -5108
22710, 8482, 2610, 13548, -1700, -626, -5855
22720, 8538, 2838, 13112, -1271, -1472, -7684
22730, 8530, 3316, 13498, -903, -1980, -8345
22740, 9228, 4177, 13856, -367, -2759, -8950
22750, 9918, 4983, 15211, 224, -3310, -9254
22760, 9972, 4972, 16012, 1466, -3818, -9044
22770, 10185, 4830, 17244, 1841, -3510, -8639
22780, 10974, 4516, 17897, 2285, -3042, -8515
22790, 11262, 3326, 17292, 2928, -2673, -9863
22800, 11347, 3069, 17000, 2368, -2835, -10728
22810, 11469, 2938, 16791, 1476, -3342, -11769
22820, 11386, 3008, 16523, 735, -3965, -12777
22830, 11254, 3625, 15961, 120, -5074, -13473
22840, 11458, 3853, 15799, 540, -5522, -13065
22850, 11617, 3873, 15641, 1385, -6033, -12469
22860, 11173, 3315, 15478, 2938, -6690, -11229
22870, 9753, 3254, 15638, 2963, -6476, -10914
22880, 8745, 3215, 15755, 2653, -5993, -10658
22890, 8245, 2730, 15292, 1949, -4746, -10000
22900, 8489, 2708, 14566, 1879, -4466, -9522
22910, 8862, 2516, 13965, 1712, -4517, -9048
22920, 8799, 2168, 13027, 1751, -5101, -8188
22930, 9133, 1578, 12909, 1594, -5530, -7887
22940, 8863, 1013, 13132, 981, -5887, -8141
22950, 8239, 841, 13201, 62, -6477, -9015
22960, 7747, 1004, 13355, -2246, -7064, -10406
22970, 7900, 1307, 13505, -3122, -7074, -10991
22980, 7833, 1739, 13258, -3486, -7018, -11381
22990, 8649, 2227, 12692, -3357, -6229, -10598
23000, 8642, 1820, 12958, -2821, -5372, -9686
23010, 8879, 1400, 13127, -2092, -4522, -8621
23020, 8945, 1246, 12837, -1418, -3704, -7672
23030, 8867, 1251, 12903, -1704, -3581, -7861
23040, 8694, 1310, 12947, -1925, -3537, -8173
23050, 8613, 1291, 12975, -2072, -3526, -8386
23060, 9089, 1519, 12758, -1717, -3794, -8664
23070, 9180, 1421, 12748, -1370, -3706, -8484
23080, 8715, 1127, 12912, -970, -3380, -7985
23090, 8942, 363, 13227, -620, -3181, -6781
23100, 9095, 426, 13250, -775, -3046, -6457
23110, 8749, 154, 13641, -1343, -3041, -6271
23120, 8901, 361, 13288, -1237, -3263, -6324
23130, 9067, 443, 13067, -1176, -3249, -6208
23140, 9488, 410, 13199, -1177, -3125, -5936
23150, 10005, 538, 13595, -1261, -3257, -5458
23160, 10258, 437, 14052, -1328, -3257, -5114
23170, 10451, 399, 14351, -1246, -3268, -4837
23180, 10354, 517, 15036, -881, -2779, -3724
23190, 10253, 543, 15251, -634, -2507, -3023
23200, 10591, 679, 15515, -464, -2113, -2022
23210, 11773, 622, 16440, -1230, -1905, -1459
23220, 11753, 531, 16716, -1932, -2019, -1970
23230, 11603, 750, 16578, -2672, -2188, -2544
23240, 11641, 1095, 16517, -3344, -2292, -2909
23250, 11939, 2029, 16470, -3790, -2295, -2495
23260, 12059, 2442, 16215, -3602, -2288, -2024
23270, 11822, 2772, 16066, -3352, -2351, -1717
23280, 11270, 2735, 16061, -3036, -2576, -1000
23290, 11514, 2661, 16291, -2707, -2562, -515
23300, 11865, 2633, 16619, -3075, -2505, -219
23310, 12075, 2719, 16739, -3662, -2439, -193
23320, 11458, 3788, 16462, -5344, -1935, -524
23330, 11917, 6156, 15190, -5720, -1142, -1121
23340, 11718, 5862, 14514, -4649, -1044, -630
23350, 11061, 4815, 13685, -2656, -41, 1734
23360, 10610, 4304, 13500, -2269, -99, 2432
23370, 10100, 4384, 13209, -2199, -629, 2502
23380, 9015, 4957, 12976, -2631, -1643, 1640
23390, 8138, 4916, 13107, -2651, -1568, 1314
23400, 7508, 4991, 12823, -2407, -1338, 1317
23410, 7687, 4752, 12540, -2107, -882, 1863
23420, 8096, 3943, 12415, -1439, 363, 3251
23430, 8525, 3399, 12318, -1275, 711, 3702
23440, 8827, 2875, 12388, -1441, 884, 3953
23450, 9163, 2578, 12239, -2406, 528, 3602
23460, 8910, 2910, 12164, -3059, 299, 3197
23470, 9084, 3355, 12071, -3754, -10, 2721
23480, 9214, 3633, 11723, -4317, -234, 2064
23490, 9339, 3816, 11498, -4824, -486, 834
23500, 9561, 3617, 11420, -4875, -453, 597
23510, 9450, 3349, 11349, -4821, -400, 489
23520, 9905, 2896, 11079, -4748, -572, 453
23530, 9609, 2742, 11030, -4875, -752, 150
23540, 9218, 2833, 10816, -5081, -1013, -218
23550, 8910, 3131, 10724, -5312, -1264, -510
23560, 8583, 4137, 10305, -5533, -1536, -1146
23570, 8368, 4811, 10258, -5483, -1580, -1597
23580, 8220, 5388, 10024, -4326, -1244, -2026
23590, 8654, 5417, 10084, -3441, -697, -1755
23600, 8906, 4889, 10298, -2635, -131, -1446
23610, 9355, 4044, 10679, -1629, 590, -1104
23620, 9684, 3994, 10907, -1679, 166, -1528
23630, 9970, 4240, 11075, -1943, -385, -2201
23640, 9992, 4621, 11433, -2309, -738, -2954
23650, 10568, 5296, 11621, -2559, -1029, -4183
23660, 10688, 5312, 11403, -2363, -947, -4545
23670, 10771, 5124, 11178, -2093, -834, -4685
23680, 10663, 4318, 11305, -1774, -401, -4786
23690, 10308, 3823, 11997, -1671, -560, -4872
23700, 10941, 4214, 12629, -1311, -1027, -4638
23710, 11482, 4606, 13102, -1135, -1094, -4424
23720, 11849, 4479, 14301, -1682, -905, -5141
23730, 11910, 4393, 14406, -2127, -1097, -6032
23740, 12194, 4458, 14353, -2766, -1199, -6764
23750, 12715, 4524, 14350, -3604, -1274, -7388
23760, 13472, 4055, 14078, -5100, -2027, -9094
23770, 13506, 3801, 14028, -5718, -2644, -9988
23780, 13591, 4191, 13793, -6369, -3574, -10608
23790, 13442, 4635, 13852, -6441, -3658, -10536
23800, 13246, 4966, 13696, -6206, -3645, -10477
23810, 13102, 5160, 13587, -5290, -3376, -10268
23820, 12976, 4934, 13635, -4430, -3147, -9968
23830, 12828, 4667, 13576, -3295, -2792, -9214
23840, 12823, 4144, 13611, -2120, -2299, -8079
23850, 12599, 2536, 13449, -172, -1773, -6115
23860, 12378, 1714, 13404, 119, -2040, -5706
23870, 11756, 1069, 13407, -55, -2502, -5712
23880, 10167, 376, 12817, -1195, -3301, -5708
23890, 9555, 299, 12418, -2067, -3621, -5827
23900, 8863, 442, 12073, -2855, -3877, -6045
23910, 8547, 1109, 11362, -3523, -4049, -6065
23920, 8368, 1481, 11330, -4448, -3854, -5867
23930, 8503, 1770, 11192, -4604, -3716, -5612
23940, 8720, 2004, 10960, -4639, -3584, -5376
23950, 8823, 2176, 10991, -4942, -3537, -5591
23960, 8867, 2217, 11200, -5162, -3479, -5737
23970, 8904, 2275, 11555, -5413, -3434, -5940
23980, 9051, 2389, 11906, -5669, -3460, -6257
23990, 9139, 2369, 12206, -6130, -3007, -6883
24000, 9391, 2362, 11992, -6299, -2642, -7023
24010, 9918, 2300, 11663, -6619, -2198, -7283
24020, 10300, 2388, 11404, -6609, -2089, -7301
24030, 10789, 2423, 11163, -6453, -2047, -7372
24040, 10355, 2181, 11221, -6184, -2132, -7672
24050, 10219, 1990, 10974, -5093, -2986, -7647
24060, 9948, 1655, 11137, -4521, -3100, -7395
24070, 9684, 1235, 11386, -3903, -3124, -7120
24080, 9639, 611, 11924, -3044, -2943, -6484
24090, 9857, 412, 12442, -2872, -2769, -6245
24100, 10188, 329, 12858, -2773, -2667, -6113
24110, 11106, 34, 13528, -2755, -2436, -5908
24120, 11691, -312, 13719, -2803, -2431, -5937
24130, 12305, -797, 13990, -2896, -2509, -6072
24140, 12572, -1321, 14208, -3109, -2613, -6138
24150, 13812, -1408, 14922, -4437, -3102, -5972
24160, 13652, -1113, 15296, -5282, -3439, -6239
24170, 13836, 263, 14985, -5986, -3854, -6657
24180, 13287, 1549, 15838, -6841, -3695, -6903
24190, 13632, 2032, 15423, -6409, -3608, -6630
24200, 13758, 1886, 15243, -5546, -3014, -5810
24210, 14162, 1722, 15407, -4991, -2353, -4683
24220, 14258, 2163, 15338, -6918, -3797, -7182
24230, 13574, 3046, 14879, -7243, -3990, -7420
24240, 13560, 3901, 14628, -7176, -3795, -6807
24250, 12822, 4696, 14243, -4908, -893, -2481
24260, 12664, 3716, 14933, -3693, 447, -56
24270, 12448, 3793, 15115, -1892, 867, 1520
24280, 11541, 3445, 14222, -330, 834, 2175
24290, 10903, 3003, 14302, -266, 612, 1775
24300, 10610, 2780, 14183, -703, 479, 1514
24310, 10321, 2750, 13744, -1092, 317, 1258
24320, 9392, 2634, 12834, -1844, 103, 961
24330, 9215, 2630, 12489, -2171, 26, 1008
24340, 9384, 2730, 12345, -2576, -76, 1101
24350, 9412, 2637, 12404, -3367, -536, 550
24360, 9337, 2500, 12283, -3526, -784, 335
24370, 9461, 2383, 12216, -3671, -839, 443
24380, 9440, 2327, 12279, -3721, -663, 724
24390, 9136, 2292, 12122, -3667, -202, 1192
24400, 9180, 2296, 12004, -3759, 51, 1400
24410, 9216, 2528, 11942, -3895, 173, 1334
24420, 9358, 3110, 12135, -4024, 60, 680
24430, 9621, 3153, 12289, -3863, 75, 416
24440, 9612, 3009, 12451, -3611, 287, 226
24450, 9792, 2247, 12425, -3022, 568, 62
24460, 9857, 1786, 12348, -3119, 619, -75
24470, 9796, 1453, 12273, -3470, 552, -400
24480, 9274, 1500, 11586, -4454, 180, -1311
24490, 9067, 1617, 11171, -4865, 19, -1628
24500, 8855, 1679, 10790, -5110, -116, -1829
24510, 8623, 2047, 10360, -4943, -218, -1881
24520, 8729, 2357, 10241, -4538, -298, -1838
24530, 8980, 2721, 10310, -4142, -168, -1746
24540, 9023, 2827, 10720, -3684, 132, -1647
24550, 9654, 2540, 11127, -2686, 552, -1579
24560, 10208, 2321, 11491, -2768, 652, -1719
24570, 10359, 2146, 11788, -3096, 724, -2086
24580, 10877, 2853, 11593, -3921, 523, -3039
24590, 11369, 3139, 11568, -4346, 456, -3396
24600, 11348, 3228, 11354, -4579, 266, -3819
24610, 11497, 3218, 10831, -4583, 43, -4077
24620, 11834, 3301, 9728, -4033, -210, -3676
24630, 10767, 2820, 10505, -4142, 63, -3323
24640, 10810, 3300, 12080, -4129, -293, -3023
24650, 11872, 5699, 12957, -3629, -746, -2982
24660, 12185, 6287, 14196, -3917, -600, -3528
24670, 12383, 6625, 14969, -3885, -502, -4318
24680, 12971, 6383, 14959, -3498, -217, -6052
24690, 13145, 5775, 14984, -3815, -185, -6983
24700, 13301, 5393, 14737, -4305, -366, -7854
24710, 13420, 5367, 14412, -5904, -1160, -9628
24720, 13398, 5455, 14270, -6700, -1856, -10930
24730, 12851, 5331, 13956, -6966, -2308, -12062
24740, 12094, 4684, 13027, -5752, -1756, -11408
24750, 12200, 4365, 12868, -4891, -1269, -10387
24760, 12118, 4136, 12754, -3895, -877, -9482
24770, 11885, 4049, 12617, -2901, -599, -8701
24780, 11940, 3739, 12713, -1521, -302, -7273
24790, 11993, 3403, 12759, -1073, -360, -6898
24800, 11676, 2976, 12623, -691, -563, -6810
24810, 10992, 2136, 12202, -308, -969, -6563
24820, 10892, 1676, 12039, -441, -1225, -6474
24830, 10751, 1238, 11965, -734, -1521, -6611
24840, 10495, 778, 11865, -1142, -1785, -6811
24850, 9837, 558, 11731, -2008, -2155, -6999
24860, 9559, 854, 11574, -2217, -2099, -6854
24870, 9338, 1071, 11381, -2163, -1925, -6613
24880, 9392, 1400, 11146, -1720, -1448, -5995
24890, 9488, 1480, 11031, -1350, -1309, -5746
24900, 9495, 1452, 10920, -888, -1234, -5551
24910, 9158, 1158, 10815, 123, -1090, -5182
24920, 9218, 760, 10911, 662, -991, -4875
24930, 9151, 135, 11172, 1034, -722, -4433
24940, 9265, -199, 11548, 1452, -330, -3560
24950, 9616, -152, 11798, 1527, -260, -3375
24960, 9998, -124, 12112, 1565, -208, -3288
24970, 10731, -128, 12452, 1821, -209, -3174
24980, 11001, -415, 12542, 2019, -96, -2984
24990, 11165, -950, 12637, 2146, -23, -2749
25000, 11256, -1460, 12716, 2144, -95, -2503
25010, 11202, -1910, 13061, 1673, -267, -1815
25020, 11293, -1757, 13224, 1394, -214, -1202
25030, 11453, -1438, 13395, 1001, -202, -825
25040, 11580, -1102, 13531, 591, -231, -704
25050, 11702, -601, 13571, -45, -385, -1027
25060, 11876, -606, 13534, -273, -480, -1121
25070, 12132, -788, 13549, -509, -685, -1135
25080, 12436, -946, 13722, -1077, -1381, -1085
25090, 12521, -584, 13979, -1490, -1691, -974
25100, 12814, 5, 14246, -1944, -1873, -796
25110, 13021, 748, 14490, -2314, -1968, -834
25120, 12691, 1230, 14230, -2130, -1716, -1065
25130, 12859, 1297, 14113, -1691, -1383, -596
25140, 13625, 1755, 14832, -66, -1151, 173
25150, 13374, 665, 14774, 907, -423, 1435
25160, 13582, 289, 14777, 783, -155, 2009
25170, 13723, 412, 14668, 301, -168, 2097
25180, 13992, 1457, 14342, -1014, -605, 1653
25190, 13923, 2197, 14165, -1188, -852, 1390
25200, 13527, 2925, 13924, -764, -741, 1649
25210, 13113, 3327, 13729, 140, -194, 2584
25220, 13246, 3484, 13929, 2312, 1118, 4992
25230, 13189, 3215, 14115, 3303, 1597, 5860
25240, 13246, 2944, 14234, 4022, 1839, 6513
25250, 12573, 2176, 14268, 4404, 1871, 7085
25260, 12171, 1934, 14110, 4378, 1750, 7187
25270, 11657, 1732, 13768, 4125, 1639, 7121
25280, 10989, 1466, 13323, 3783, 1587, 7002
25290, 10195, 1246, 12256, 2832, 1602, 6830
25300, 9910, 1276, 11807, 2392, 1597, 6719
25310, 9771, 1536, 11545, 2053, 1593, 6716
25320, 9872, 1807, 11355, 1770, 1605, 6920
25330, 9639, 1996, 11197, 1636, 1639, 7215
25340, 9440, 2082, 10976, 1541, 1636, 7254
25350, 9056, 2093, 10840, 1297, 1756, 7221
25360, 8882, 2385, 10489, 489, 1809, 6712
25370, 8449, 2792, 10041, -152, 1825, 5790
25380, 8323, 3003, 9823, -262, 1905, 5447
25390, 8335, 3198, 9665, -200, 2002, 5188
25400, 8821, 3154, 9585, 216, 2163, 4864
25410, 8884, 2941, 9511, 443, 2163, 4707
25420, 9055, 2730, 9482, 537, 1937, 4410
25430, 8934, 2639, 9554, 505, 1622, 3971
25440, 9075, 2659, 9840, 220, 1161, 3376
25450, 9108, 2831, 10087, 58, 962, 2927
25460, 9113, 3109, 10263, -8, 880, 2477
25470, 9354, 3297, 10452, 79, 962, 2158
25480, 10024, 3618, 10997, 655, 1555, 1988
25490, 10521, 3810, 11211, 1036, 1752, 2039
25500, 11041, 3753, 11589, 1379, 1862, 2044
25510, 11901, 3636, 12718, 1504, 1647, 1354
25520, 12081, 3468, 13208, 1375, 1345, 716
25530, 12213, 3309, 13609, 1188, 1082, 166
25540, 12032, 2840, 14004, 803, 685, -811
25550, 11724, 2684, 14053, 583, 533, -1236
25560, 11734, 2726, 14264, 404, 449, -1410
25570, 11879, 3021, 14665, 285, 467, -1416
25580, 12042, 3726, 15335, 401, 582, -1846
25590, 11677, 3226, 15182, 655, 682, -2311
25600, 11495, 2715, 15045, 918, 801, -2487
25610, 12717, 3069, 15950, 234, 1030, -2202
25620, 13089, 3431, 16260, -328, 927, -2778
25630, 13000, 3508, 16101, -853, 694, -3857
25640, 13023, 2996, 15257, -1768, 239, -5463
25650, 13143, 2881, 14932, -1975, -2, -5722
25660, 12898, 2975, 14462, -1741, -199, -5692
25670, 12304, 2795, 13534, -1181, -188, -4772
25680, 12195, 2597, 13293, 241, 186, -3869
25690, 12022, 2461, 13064, 1002, 322, -3167
25700, 11800, 2453, 12891, 1733, 404, -2503
25710, 11009, 2273, 12427, 3152, 603, -1321
25720, 10565, 1973, 12065, 3754, 671, -958
25730, 10171, 1339, 11756, 4132, 729, -725
25740, 9436, 127, 10874, 4288, 495, -606
25750, 8999, -102, 10512, 4075, 300, -617
25760, 8528, -168, 10285, 3783, 112, -620
25770, 8247, -116, 10054, 3562, -59, -574
25780, 8311, 207, 10005, 3017, -338, -551
25790, 8196, 583, 10019, 2846, -524, -788
25800, 8021, 1088, 10035, 2909, -456, -863
25810, 8259, 1732, 10221, 3511, 167, -657
25820, 8533, 1710, 10262, 3971, 690, -467
25830, 8965, 1543, 10317, 4367, 1118, -319
25840, 9438, 1339, 10499, 4540, 1353, -315
25850, 10277, 1367, 10688, 4545, 1149, -791
25860, 10417, 1342, 10846, 4567, 995, -988
25870, 10528, 1178, 11114, 5087, 922, -589
25880, 10643, 1155, 11296, 5478, 949, -135
25890, 10805, 1122, 11593, 5825, 1006, 348
25900, 11126, 1184, 12244, 6265, 870, 846
25910, 11094, 1126, 12654, 6371, 772, 974
25920, 11144, 1022, 13132, 6409, 724, 1184
25930, 11109, 710, 13587, 6395, 757, 1418
25940, 11318, -453, 14087, 5956, 838, 1888
25950, 11366, -994, 14179, 5367, 723, 2042
25960, 11301, -1381, 14282, 4547, 459, 2043
25970, 11287, -1603, 14092, 2401, -538, 1634
25980, 11023, -1357, 13861, 1249, -1207, 1191
25990, 10601, -860, 13754, 270, -1837, 671
26000, 10115, 5, 13514, -246, -1833, 953
26010, 10503, -20, 13630, 41, -1244, 1755
26020, 10993, -538, 13708, 470, -605, 2604
26030, 11532, -1265, 13597, 728, -263, 3285
26040, 12701, -1582, 13722, -360, -1060, 3443
26050, 12878, -661, 14040, -1458, -1998, 2694
26060, 12963, 689, 14183, -2274, -2787, 1924
26070, 13557, 3066, 14448, -2078, -2975, 1758
26080, 14698, 2411, 15485, 4821, 398, 5629
26090, 15104, 1506, 15727, 5857, 1040, 6553
26100, 17061, 152, 16757, 4703, 1328, 6890
26110, 17593, 130, 16834, 3080, 550, 5752
26120, 17481, 421, 16392, 1104, -678, 3859
26130, 16485, 1594, 15254, -1519, -2576, 1179
26140, 16676, 2009, 14670, -1489, -2623, 1821
26150, 15476, 2581, 14015, -605, -2321, 2893
26160, 15553, 2782, 13228, 732, -1955, 4512
26170, 14090, 2543, 12260, 3299, -861, 7604
26180, 13932, 2706, 11885, 4129, -714, 8576
26190, 12992, 2645, 11979, 4519, -587, 8928
26200, 11640, 2979, 10977, 5131, -642, 9219
26210, 11321, 2678, 10949, 5277, -374, 9540
26220, 10915, 2489, 10524, 5585, -109, 9852
26230, 10508, 2334, 10052, 5727, 62, 9951
26240, 9352, 2133, 9418, 5179, 250, 9795
26250, 9136, 2290, 8996, 4711, 182, 9658
26260, 9042, 2572, 8797, 4230, 113, 9431
26270, 8904, 3236, 8728, 3577, 85, 8901
26280, 8790, 3462, 8647, 3694, 283, 8798
26290, 8778, 3531, 8492, 3896, 565, 8771
26300, 8862, 3488, 8410, 4106, 874, 8800
26310, 9414, 3134, 8258, 3833, 1065, 8481
26320, 9478, 3125, 8331, 3362, 814, 7822
26330, 9073, 3201, 8469, 2726, 179, 6243
26340, 8847, 3272, 8514, 2731, 143, 5826
26350, 8797, 3094, 8836, 2896, 447, 5852
26360, 8836, 2788, 9332, 3189, 1065, 6200
26370, 9270, 1823, 10029, 3305, 2404, 6803
26380, 9371, 1635, 10346, 2726, 2973, 6782
26390, 9700, 1973, 10584, 1927, 3141, 6358
26400, 10939, 2514, 10593, 933, 2936, 5060
26410, 11021, 2515, 10573, 822, 2635, 4526
26420, 11571, 2491, 10492, 924, 2137, 4236
26430, 12098, 2608, 11404, 1329, 1013, 4010
26440, 12582, 2688, 11740, 1572, 343, 3832
26450, 12555, 2794, 12277, 1506, -17, 3531
26460, 12502, 2734, 12923, 1120, -340, 3076
26470, 12280, 2649, 13249, 441, -693, 2062
26480, 11996, 2544, 13090, 188, -600, 1857
26490, 12108, 2941, 12948, -5, -694, 1694
26500, 12295, 3771, 13695, -223, -922, 1428
26510, 12612, 5394, 14264, -230, -1538, 495
26520, 12151, 5339, 14569, 128, -1798, -440
26530, 11518, 5105, 14571, 681, -1898, -1232
26540, 11883, 5751, 15589, 960, -1280, -1223
26550, 12690, 6230, 16576, 877, -821, -1414
26560, 12839, 5362, 16662, 1698, -368, -3553
26570, 12864, 4252, 15729, 2155, -306, -4197
26580, 13103, 3595, 15045, 2033, -372, -4265
26590, 13157, 2964, 14713, 1636, -794, -4294
26600, 12086, 2785, 13597, 1095, -2261, -4608
26610, 11508, 3083, 13302, 847, -2877, -4590
26620, 10819, 3407, 13188, 799, -3225, -4487
26630, 9511, 3957, 13058, 1530, -3168, -3907
26640, 8926, 4146, 12963, 2276, -2604, -3251
26650, 8601, 4170, 12900, 3051, -1898, -2560
26660, 8272, 3773, 12943, 3714, -1156, -2060
26670, 7720, 2682, 12879, 4096, -135, -2255
26680, 7824, 2005, 12940, 3678, 10, -2675
26690, 8051, 1774, 12550, 3176, -108, -3309
26700, 8049, 1671, 12151, 2544, -299, -4100
26710, 8269, 1712, 11930, 1504, -564, -5073
26720, 8548, 1693, 11714, 1324, -580, -5297
26730, 8658, 1692, 11478, 1267, -497, -5457
26740, 8920, 1897, 11144, 1353, -367, -5525
26750, 9158, 1904, 11141, 1470, -306, -5550
26760, 9532, 1992, 11085, 1645, -334, -5617
26770, 10060, 1807, 11259, 2114, -316, -5696
26780, 10132, 1580, 11356, 2403, -168, -5505
26790, 10385, 1510, 11355, 2754, -4, -5182
26800, 10788, 1139, 11349, 3518, 174, -4574
26810, 10899, 977, 11304, 3898, 146, -4282
26820, 11022, 887, 11362, 4194, 24, -3961
26830, 11099, 877, 11809, 4868, -216, -3313
26840, 11078, 933, 12120, 5225, -136, -2795
26850, 11176, 961, 12429, 5540, -26, -2297
26860, 11111, 426, 12827, 5961, 158, -1605
26870, 11084, -1, 12916, 5975, 109, -1369
26880, 11186, -313, 13064, 5849, -112, -1186
26890, 11137, -575, 13238, 5621, -331, -1018
26900, 11358, -342, 13670, 4884, -862, -713
26910, 11335, -109, 13847, 4239, -1087, -839
26920, 11097, 102, 13987, 3645, -1316, -1028
26930, 11350, 103, 14247, 3290, -1155, -839
26940, 11299, -67, 13971, 3286, -1003, -718
26950, 11575, -519, 14065, 3036, -761, -329
26960, 12515, -1111, 14025, 2674, -575, 388
26970, 12786, -1347, 13888, 1647, -857, 624
26980, 12996, -1238, 13890, 776, -1242, 795
26990, 13291, -548, 14214, -344, -1810, 780
27000, 13533, 2385, 14826, -1834, -2976, -330
27010, 13596, 3581, 14937, -1666, -2935, -492
27020, 15069, 2942, 15875, 3165, 659, 3730
27030, 15404, 1867, 16190, 3465, 1087, 4415
27040, 15114, 335, 15758, 2130, 660, 4050
27050, 14787, 344, 15342, 491, 129, 3466
27060, 14445, 1353, 14843, -1387, -623, 2552
27070, 13867, 4160, 13502, -2906, -1384, 1457
27080, 13477, 5105, 12783, -3289, -1316, 1024
27090, 13196, 5611, 12347, -2318, -618, 1848
27100, 13176, 5709, 12089, -815, 250, 3252
27110, 13537, 4901, 12417, 2644, 2004, 6402
27120, 13735, 4063, 12658, 3993, 2716, 7694
27130, 13845, 3067, 12959, 4600, 3115, 8539
27140, 13718, 1747, 13093, 4424, 2999, 8711
27150, 13371, 1496, 12720, 2802, 1988, 7987
27160, 13058, 1384, 12312, 1542, 1468, 7622
27170, 12740, 1381, 11858, 160, 908, 7179
27180, 11736, 1932, 10842, -2205, -262, 6035
27190, 11314, 2393, 10303, -2865, -516, 5942
27200, 10987, 2753, 9825, -3169, -573, 6157
27210, 10428, 3299, 9400, -3088, -697, 6744
27220, 10214, 3526, 9267, -2846, -730, 6979
27230, 9896, 3578, 9159, -2615, -664, 7102
27240, 9654, 3549, 9010, -2480, -584, 7053
27250, 9126, 3530, 8831, -2710, -504, 6326
27260, 9077, 3666, 8790, -2914, -494, 5826
27270, 9062, 4146, 8809, -3132, -404, 4572
27280, 9034, 4339, 8844, -3047, -293, 3951
27290, 8916, 4595, 8636, -2743, -258, 3385
27300, 8971, 4631, 8615, -1928, 208, 2852
27310, 9282, 4388, 8739, -1385, 517, 2832
27320, 9530, 4080, 8936, -844, 803, 2795
27330, 9747, 3652, 9243, -98, 859, 2259
