timestamp, ax, ay, az, gx, gy, gz
0, -24593, 516, -590, -6972, -1528, -4157
10, -23608, -301, -2817, -3088, 2360, -2989
20, -21365, -562, -5787, 1863, 6311, -1128
30, -14877, -1498, -11539, 7119, 7012, 2910
40, -9990, -2621, -12247, 6201, 3723, 4660
50, -6699, -4374, -11708, 3768, 716, 4629
60, -5999, -6171, -10502, 986, -1189, 2907
70, -8674, -6988, -9223, -2156, -2097, -558
80, -10604, -5963, -9099, -2797, -1452, -1707
90, -13493, -3551, -8442, -3777, -706, -2901
100, -19801, 1961, -3978, -6691, -1736, -3954
110, -15333, 1940, -2046, 2638, 2897, 4902
120, -13127, 1404, -3736, 1849, 2294, 4426
130, -12562, 644, -4986, -18, 1538, 3100
140, -13664, -1518, -5386, -3745, 1177, 938
150, -13825, -1651, -4661, -4491, 1397, 751
160, -14164, -1437, -3783, -4301, 1658, 697
170, -14479, -1028, -2994, -3605, 1651, 904
180, -14439, 225, -1546, -2238, 856, 2020
190, -14188, 1036, -1028, -1798, 457, 2515
200, -13959, 1739, -594, -1554, 388, 2761
210, -14633, 2437, -49, -1304, 1221, 2417
220, -14977, 2353, 52, -1214, 1522, 2206
230, -15053, 1888, 36, -1035, 1523, 2083
240, -14331, 590, -61, -600, 807, 1738
250, -13951, 82, -156, -506, 202, 1406
260, -13676, -232, -241, -503, -249, 1029
270, -13483, -262, -301, -464, -372, 717
280, -13531, 224, -331, 195, -520, 179
290, -13540, 483, -229, 625, -736, 4
300, -13452, 829, -70, 1013, -851, -82
310, -13281, 1386, 76, 1645, -833, -374
320, -13482, 1640, 240, 1800, -869, -602
330, -13826, 1833, 354, 1947, -878, -820
340, -14862, 2213, 134, 2020, -755, -1009
350, -15286, 2511, -195, 2082, -89, -1181
360, -15669, 2748, -697, 2137, 223, -1136
370, -16138, 2768, -1220, 2152, 413, -1085
380, -17759, 1753, -1927, 1880, 554, -1023
390, -18780, 1016, -1776, 1643, 626, -946
400, -19779, 477, -1180, 1481, 931, -864
410, -21309, 2567, 2, 1735, 2440, -475
420, -21906, 4568, -206, 2154, 2253, 127
430, -22033, 5923, -702, 2658, 989, 849
440, -21957, 5748, -1016, 2906, -62, 1234
450, -20912, 2595, 910, 2169, -619, 1471
460, -20060, 1859, 2424, 2132, -707, 1720
470, -19494, 1909, 2974, 2737, -662, 2005
480, -19826, 3535, -824, 4954, -1179, 2654
490, -20905, 3505, -4701, 5924, -2412, 3163
500, -21210, -163, -8862, 5430, -4454, 3495
510, -20766, -2030, -9452, 4758, -4803, 2510
520, -19877, -2434, -9741, 4147, -5102, 1350
530, -18128, -1998, -9175, 3291, -5218, 615
540, -14142, -2067, -7029, 2035, -4297, 351
550, -13026, -2886, -6046, 2202, -3671, 254
560, -12689, -3934, -5451, 2719, -2945, 239
570, -15253, -5124, -5167, 4137, -1749, -442
580, -17373, -4365, -5471, 4638, -868, -1013
590, -18133, -3314, -5457, 4805, -173, -1187
600, -17633, -2177, -4368, 4807, 832, -1369
610, -16721, -1813, -4103, 5072, 767, -1425
620, -15832, -1228, -3968, 5129, 425, -1435
630, -14986, -664, -3480, 4776, -64, -1324
640, -14599, 132, -2675, 3973, -1036, -1292
650, -14834, 591, -2792, 3662, -928, -1262
660, -14983, 835, -2808, 3284, -403, -1183
670, -14557, 1215, -2722, 2645, -158, -1199
680, -14219, 1513, -2544, 2303, -249, -1289
690, -13833, 1875, -2539, 1850, -378, -1292
700, -13588, 1862, -1776, 1121, -666, -1411
710, -13899, 1415, -1042, -838, -2091, -2182
720, -14315, 908, -422, -1635, -2893, -2631
730, -14661, -357, 733, -2486, -4077, -3278
740, -14702, -1535, 1250, -2336, -4410, -3642
750, -14742, -2507, 1558, -1498, -4383, -3708
760, -14418, -3728, 608, 1197, -3027, -1956
770, -13512, -3335, -193, 2059, -2207, -844
780, -13246, -2174, -867, 2225, -2054, -649
790, -13640, -1010, -879, 1647, -2551, -927
800, -14301, 1142, 162, -196, -2648, -1010
810, -14830, 1663, 700, -858, -2391, -901
820, -14905, 1831, 1007, -1199, -2425, -656
830, -14001, 633, 1562, -1382, -2871, -9
840, -13313, 319, 1588, -1315, -2732, 309
850, -12790, 183, 1509, -1323, -2254, 452
860, -12771, 156, 1450, -1370, -1526, 389
870, -14262, 511, 1861, -1404, 82, 372
880, -15154, 440, 2182, -1389, 1141, 553
890, -16190, 53, 2658, -1487, 2543, 777
900, -17258, -1079, 2875, -1528, 3937, 1365
910, -17751, -2095, 2080, -1676, 4234, 1314
920, -18010, -3047, 1344, -1746, 1920, 1106
930, -18340, -3276, 1031, -1597, -1060, 629
940, -19843, -1930, 193, 75, -1755, -48
950, -21157, -1374, -486, 1154, 134, -296
960, -20935, 2272, 5396, -4822, -482, -1287
970, -20365, 2202, 6782, -5906, -3240, -1554
980, -20945, 972, 6868, -6425, -5707, -2102
990, -22201, -911, 2235, -6074, -7255, -2729
1000, -23947, -3745, 324, -2725, -8629, -3882
1010, -22133, -3333, -2083, 1343, -7533, -2448
1020, -19142, -3278, -4950, 5853, -4864, -534
1030, -14395, -3706, -10154, 11361, -1883, 1907
1040, -12625, -3345, -11798, 11384, -2067, 2048
1050, -12153, -2167, -12119, 9097, -1765, 1375
1060, -12904, -533, -7475, 2384, 2002, 245
1070, -14043, -1379, -6465, 1736, 3758, -296
1080, -15403, -1766, -6341, 1724, 3685, -823
1090, -16711, -1415, -5424, 402, 2080, -1366
1100, -18813, 829, -1197, -4147, -45, -1882
1110, -19191, 1719, 1158, -4686, 391, -1290
1120, -18686, 1823, 2768, -3073, 1198, -211
1130, -15632, 576, 1648, 3663, 1878, 1928
1140, -14674, 145, -239, 5878, 1889, 2199
1150, -13931, -239, -1723, 6313, 1719, 2266
1160, -13289, -660, -2519, 5634, 1205, 2102
1170, -12585, -1872, -2396, 3739, -205, 1342
1180, -12591, -2366, -2137, 3351, -41, 925
1190, -13066, -2059, -1859, 3861, 1702, 530
1200, -13444, -1479, -1858, 4457, 2397, 502
1210, -13884, -675, -1963, 5003, 2806, 498
1220, -14411, 274, -2118, 5233, 3098, 503
1230, -15405, 2316, -2379, 4540, 3253, 545
1240, -15794, 3038, -2289, 3838, 2990, 551
1250, -15903, 3395, -1980, 3132, 2478, 591
1260, -15475, 2441, -814, 2409, 1394, 514
1270, -15177, 1531, -539, 2460, 1228, 482
1280, -14730, 778, -456, 2629, 1051, 524
1290, -14209, 230, -363, 2763, 734, 496
1300, -13446, -177, -150, 2878, 345, 253
1310, -13454, -25, -275, 2953, 500, 103
1320, -13434, 274, -555, 3057, 718, -56
1330, -13545, 838, -762, 2898, 1053, -508
1340, -13611, 1137, -747, 2692, 1140, -750
1350, -13747, 1379, -485, 2395, 1467, -983
1360, -14517, 1776, -13, 2080, 2542, -1444
1370, -15211, 2019, 4, 2113, 2998, -1590
1380, -15942, 2264, -274, 2186, 2828, -1705
1390, -16993, 2874, -1396, 2122, 1166, -1789
1400, -17409, 2617, -2041, 1834, 656, -1669
1410, -17916, 1802, -2563, 1596, 347, -1553
1420, -19072, -583, -2164, 1283, 777, -1296
1430, -19829, -976, -1467, 1273, 1629, -1127
1440, -20649, -293, -716, 1330, 2499, -905
1450, -22002, 2369, 250, 1725, 2575, -47
1460, -22266, 3380, 461, 2053, 1773, 454
1470, -22030, 3444, 641, 2307, 869, 853
1480, -19996, 2205, 1122, 2636, -854, 1305
1490, -19135, 2453, 941, 2749, -1361, 1397
1500, -18994, 3152, -213, 3037, -1514, 1522
1510, -19699, 3736, -2048, 3493, -1725, 1762
1520, -22932, 1933, -6141, 4092, -2522, 2559
1530, -23884, -6, -7955, 3658, -2697, 3024
1540, -23386, -1941, -8874, 2625, -3422, 3150
1550, -20848, -3489, -7652, 1418, -4450, 2782
1560, -15168, -3634, -5238, 1568, -3750, 823
1570, -13000, -3070, -5078, 2013, -3229, 533
1580, -12082, -2634, -5468, 2363, -3569, 153
1590, -13404, -3695, -6533, 2794, -5333, -1006
1600, -14265, -4453, -6874, 2920, -5232, -1168
1610, -15659, -5216, -7128, 2996, -3834, -1284
1620, -17410, -5002, -5067, 2973, -2054, -1227
1630, -16736, -3964, -3980, 3866, -1591, -614
1640, -15935, -2969, -3025, 4052, -1310, -630
1650, -14546, -1314, -1567, 2983, 131, -966
1660, -14487, -832, -1166, 2371, 463, -1112
1670, -14679, -556, -953, 2218, -167, -1116
1680, -15074, -293, -2094, 3266, -2107, -806
1690, -15061, -479, -3280, 3602, -2002, -710
1700, -14818, -659, -4166, 3389, -1537, -762
1710, -13923, -948, -4103, 2128, -1849, -1039
1720, -13539, -1139, -3390, 1635, -2190, -1187
1730, -13466, -1271, -2631, 1243, -2269, -1378
1740, -14154, -949, -1089, 235, -2056, -1727
1750, -14893, -570, -413, -372, -1804, -1896
1760, -15530, -220, 136, -845, -1762, -1972
1770, -16036, 16, 397, -941, -1882, -1972
1780, -15925, 169, -102, -677, -2622, -1738
1790, -15371, -92, -368, -640, -3185, -1611
1800, -14672, -522, -467, -646, -3384, -1510
1810, -13192, -894, -933, -497, -2488, -1207
1820, -12700, -915, -1029, -637, -1966, -1191
1830, -12493, -695, -1017, -1041, -1950, -1337
1840, -12545, -546, -581, -1754, -2263, -1601
1850, -13259, 122, 860, -3094, -2329, -1648
1860, -13440, 472, 1494, -3293, -1955, -1347
1870, -13726, 683, 1796, -3048, -1465, -1004
1880, -15062, -603, 539, -2510, -499, 131
1890, -15165, -1118, 450, -2780, -317, 152
1900, -15298, -1636, 901, -3379, 501, 136
1910, -15558, -1560, 1239, -3742, 1076, 56
1920, -16009, -1378, 1533, -4074, 1698, -63
1930, -16777, -1335, 1716, -4289, 2038, -242
1940, -19050, -954, 1635, -3705, 1588, -800
1950, -20468, -609, 1247, -3051, 1588, -973
1960, -21935, -663, 533, -2402, 1770, -1093
1970, -22338, -1698, 575, -2367, 1641, -963
1980, -21123, -1987, 1446, -2857, 1343, -841
1990, -19958, -1706, 2399, -3328, 996, -867
2000, -18697, -59, 3979, -3852, -547, -1043
2010, -18634, 802, 4404, -4100, -1633, -1138
2020, -18702, 1287, 4573, -4481, -2623, -1194
2030, -18604, 1192, 4395, -4987, -3343, -1264
2040, -19294, -441, 3620, -6131, -4012, -1891
2050, -20676, -1610, 2787, -6579, -4085, -2410
2060, -22080, -2291, 1447, -6429, -4476, -2870
2070, -22521, -2554, -1624, -2351, -5912, -2487
2080, -21545, -2815, -3344, 801, -4456, -1754
2090, -20016, -3048, -5334, 3653, -1497, -832
2100, -18285, -3267, -7007, 5589, 1528, -35
2110, -14257, -3979, -8958, 6748, 4485, 1282
2120, -12119, -4081, -9253, 6178, 4337, 1774
2130, -9678, -2878, -8624, 3593, 1421, 1140
2140, -10690, -2054, -8113, 1646, 192, -200
2150, -12327, -951, -7403, -712, -484, -1379
2160, -17781, 1640, -4418, -5103, -1233, -3124
2170, -20477, 2238, -1716, -6265, -1403, -3218
2180, -21821, 2244, 978, -5846, -696, -2248
2190, -17722, 536, 2044, -85, 1740, 1480
2200, -15190, 43, 260, 2733, 1716, 2539
2210, -13803, -313, -1392, 3814, 1231, 2777
2220, -12901, -773, -2487, 3341, 559, 2641
2230, -12333, -2079, -2982, 872, -138, 1687
2240, -12508, -2520, -2805, 87, -94, 1201
2250, -12824, -2585, -2713, -105, 235, 873
2260, -14039, -1812, -2531, 672, 1701, 743
2270, -14766, -1559, -2446, 1392, 2352, 738
2280, -15429, -1288, -2493, 2068, 2969, 709
2290, -16448, -488, -2610, 2485, 3916, 590
2300, -16565, 11, -2571, 2306, 3953, 552
2310, -16588, 436, -2331, 1817, 3577, 423
2320, -16373, 805, -1957, 1279, 2760, 303
2330, -15388, 1361, -894, 454, 685, 282
2340, -14939, 1420, -498, 324, -50, 228
2350, -14343, 1349, -316, 413, 83, 53
2360, -14356, 1140, -509, 587, 280, -66
2370, -14491, 849, -828, 777, 244, -157
2380, -14566, 639, -1029, 859, 168, -212
2390, -14171, 420, -774, 690, 83, -369
2400, -14119, 329, -504, 698, 42, -561
2410, -14246, 344, -331, 773, 76, -758
2420, -14752, 416, -203, 863, 224, -1031
2430, -15027, 448, -164, 861, 217, -1149
2440, -15259, 580, -98, 908, 226, -1229
2450, -15842, 1065, -135, 1028, 304, -1302
2460, -15922, 1493, -485, 1522, 457, -1227
2470, -15768, 1794, -1036, 1721, 204, -1128
2480, -15650, 1817, -1619, 1682, -106, -1051
2490, -16291, 491, -2154, 1077, -714, -973
2500, -16898, -564, -1982, 926, -711, -898
2510, -17612, -1231, -1722, 1151, -322, -837
2520, -19154, -81, -1416, 1926, 1360, -671
2530, -20077, 1325, -1295, 1989, 1980, -544
2540, -21004, 2480, -1151, 1868, 1796, -372
2550, -21837, 2371, -393, 1735, 893, -231
2560, -21166, 1301, 142, 1612, -502, 142
2570, -19937, 540, 1016, 1576, -1033, 293
2580, -18863, 270, 1942, 1655, -1467, 374
2590, -18217, 944, 2384, 2636, -1555, 720
2600, -18954, 1710, 1134, 3668, -1471, 994
2610, -21936, 2217, -3512, 5674, -2655, 1999
2620, -22616, 1038, -5674, 5792, -3778, 2624
2630, -22291, -345, -6952, 4865, -4589, 2980
2640, -19443, -1229, -7295, 2101, -5104, 2045
2650, -17920, -888, -7298, 1509, -5181, 1263
2660, -16041, -679, -7262, 1202, -5030, 853
2670, -14146, -699, -7260, 877, -4464, 695
2680, -11454, -2042, -6439, 283, -2821, 392
2690, -11467, -3504, -5570, 461, -2714, 4
2700, -12564, -4794, -4593, 1195, -3262, -288
2710, -14236, -5133, -3918, 2192, -3423, -367
2720, -17004, -3212, -3753, 3284, -909, -303
2730, -17197, -1982, -3266, 2852, 178, -244
2740, -16928, -880, -2378, 2086, 505, -280
2750, -16202, 235, -903, 840, -388, -386
2760, -15591, 449, -1481, 524, -1583, -279
2770, -15309, 392, -2117, 334, -1758, -294
2780, -15076, 337, -2760, -64, -1798, -389
2790, -14978, 351, -3314, -546, -1794, -523
2800, -14847, 355, -3782, -1725, -1282, -818
2810, -14681, 189, -3691, -2283, -1173, -963
2820, -14517, -1085, -1483, -4567, -1181, -1439
2830, -14788, -1129, -1110, -4954, -1065, -1563
2840, -15214, -1025, -615, -5393, -1373, -1761
2850, -15324, -1046, -542, -5491, -1784, -1900
2860, -15401, -1040, -671, -5594, -1961, -2028
2870, -15327, -578, -635, -5822, -1956, -2147
2880, -15221, -167, -647, -5971, -1671, -2040
2890, -15322, 289, -752, -6200, -1426, -1998
2900, -15819, 972, -697, -6920, -1275, -1941
2910, -16087, 1377, -666, -7299, -1137, -1745
2920, -16140, 1758, -681, -7743, -1192, -1520
2930, -15849, 1704, -364, -8397, -1468, -1023
2940, -15259, 1540, -339, -8372, -1263, -558
2950, -14439, 1302, -488, -8199, -844, -97
2960, -13588, 917, -706, -7857, -415, 315
2970, -12746, -214, -1358, -7176, 430, 528
2980, -12934, -592, -1504, -7336, 721, 310
2990, -13457, -634, -1304, -7907, 984, 25
3000, -14206, -419, -684, -8697, 1177, -228
3010, -15267, -73, 876, -9629, 1754, -351
3020, -15721, -153, 1334, -9654, 2274, -417
3030, -16300, -300, 1628, -9666, 2829, -533
3040, -17205, -209, 1730, -9807, 2878, -719
3050, -17363, -81, 1303, -9517, 2191, -755
3060, -17289, -350, -956, -8322, 718, -698
3070, -17294, -895, -2054, -8003, 346, -663
3080, -17579, -1679, -2769, -7985, 391, -801
3090, -18395, -2414, -2853, -8276, 912, -1137
3100, -19525, -2787, -758, -9527, 2435, -1650
3110, -19657, -2208, 629, -10104, 2745, -1912
3120, -19521, -1057, 2027, -10639, 2675, -2156
3130, -19314, 277, 3249, -11117, 2241, -2310
3140, -19132, 2021, 4778, -11757, -35, -2459
3150, -19513, 1797, 4539, -11646, -1414, -2457
3160, -19991, 1218, 3036, -11033, -2519, -2291
3170, -21354, -467, -1874, -10182, -3059, -2764
3180, -22445, -1370, -3381, -10155, -3100, -3899
3190, -23707, -1533, -4327, -9754, -2006, -4970
3200, -23495, 1055, -6404, -7390, 2675, -4504
3210, -20503, 2831, -7410, -5854, 4088, -2626
3220, -15983, 3100, -7951, -5080, 3467, -161
3230, -10897, 2621, -7537, -5609, 992, 1976
3240, -8248, 1389, -7074, -7636, -2551, 740
3250, -11316, 422, -7520, -8452, -2730, -872
3260, -13310, -142, -7783, -9198, -2124, -1363
3270, -15075, 16, -7992, -10292, 1916, -1820
3280, -15614, 412, -7430, -10812, 4267, -2028
3290, -15599, 1856, -5731, -10642, 5650, -1338
3300, -15390, 2468, -5132, -9872, 4721, -913
3310, -15309, 2680, -4863, -9028, 3855, -611
3320, -15134, 2675, -5064, -8385, 3253, -292
3330, -14801, 2861, -5093, -7953, 2763, 151
3340, -14824, 2906, -5462, -8042, 2884, 99
3350, -15047, 2745, -5880, -8375, 3022, -163
3360, -15196, 1438, -6378, -9711, 3299, -1010
3370, -14778, 602, -6180, -10591, 3209, -1354
3380, -14234, 130, -5855, -11311, 3227, -1615
3390, -13843, -107, -5504, -11848, 3307, -1916
3400, -13489, 205, -5140, -12248, 3453, -2328
3410, -13584, 732, -5074, -12240, 3317, -2472
3420, -13874, 1458, -5055, -12229, 2919, -2578
3430, -15170, 2590, -4997, -12106, 2246, -2708
3440, -15769, 3067, -4959, -11866, 2269, -2586
3450, -16082, 3440, -5049, -11435, 2300, -2314
3460, -15928, 3531, -5270, -11005, 2315, -2041
3470, -15192, 2715, -5365, -10783, 1934, -2096
3480, -15003, 2276, -5276, -11003, 1575, -2330
3490, -14903, 1784, -5134, -11235, 1319, -2592
3500, -14776, 1013, -4785, -11302, 940, -2956
3510, -14704, 820, -4561, -11142, 625, -3038
3520, -14562, 725, -4270, -10918, 245, -3069
3530, -14434, 1127, -3697, -10538, -327, -3176
3540, -14221, 1538, -3494, -10441, -406, -3226
3550, -14153, 1880, -3376, -10456, -369, -3398
3560, -14199, 2158, -3359, -10590, -294, -3605
3570, -14445, 2727, -3532, -10708, -194, -3862
3580, -14421, 2962, -3853, -10630, -250, -3932
3590, -14483, 2652, -3963, -10560, -440, -4097
3600, -15192, 833, -3350, -10039, -1504, -4511
3610, -15553, 49, -3022, -9372, -2046, -4590
3620, -16050, -452, -2897, -8622, -2357, -4673
3630, -16599, -543, -2918, -7970, -2447, -4742
3640, -17479, 136, -2781, -7447, -2805, -4652
3650, -17882, 599, -2474, -7349, -3336, -4589
3660, -18091, 945, -2087, -7220, -4036, -4482
3670, -18341, 1211, -1614, -6416, -4953, -4032
3680, -18224, 1008, -1607, -5819, -5033, -3701
3690, -18279, 614, -1670, -5250, -4995, -3489
3700, -18510, 316, -1689, -4719, -5134, -3397
3710, -19102, 783, -1645, -3559, -5898, -3083
3720, -16639, 3358, -2435, -2423, -4850, -2076
3730, -17229, 3937, -2646, -2701, -4307, -1999
3740, -17799, 4172, -3245, -2668, -4261, -1856
3750, -18049, 4321, -4368, -2783, -4137, -1703
3760, -17911, 4336, -5745, -3406, -3978, -1702
3770, -16745, 3659, -7669, -6356, -3437, -2284
3780, -15661, 3007, -7913, -8135, -2849, -2571
3790, -14309, 2359, -7678, -9715, -2074, -2766
3800, -12584, 277, -5217, -11280, -1509, -3085
3810, -13028, -1201, -3624, -10475, -2601, -3184
3820, -14757, -2248, -2500, -8659, -4079, -3198
3830, -19201, -2385, -3601, -6463, -4669, -2815
3840, -20181, -1365, -4220, -4856, -2581, -2262
3850, -20020, -119, -4459, -5921, -1427, -2063
3860, -18855, 984, -4285, -7560, -685, -1980
3870, -15158, 2589, -3298, -10225, 77, -1792
3880, -14008, 2845, -2955, -10723, -13, -1865
3890, -13494, 2572, -2785, -10670, -350, -1955
3900, -13704, 1485, -3527, -10323, -1828, -2324
3910, -14150, 718, -3998, -10369, -2200, -2600
3920, -14539, 7, -4083, -11231, -2076, -2914
3930, -14975, -717, -3704, -13477, -1774, -3710
3940, -15241, -656, -3407, -14550, -1682, -4082
3950, -15613, -214, -3033, -15570, -1671, -4406
3960, -16799, -213, -1454, -17185, -2069, -5115
3970, -17103, -476, -915, -16760, -1824, -4991
3980, -17077, -423, -1021, -15555, -1393, -4570
3990, -16994, -290, -1340, -14381, -1022, -4216
4000, -16669, -291, -1791, -13243, -394, -3896
4010, -16428, -565, -1956, -12884, 31, -3803
4020, -16064, -968, -2191, -12486, 598, -3706
4030, -15254, -1601, -2960, -11594, 1532, -3412
4040, -14849, -1814, -3258, -11434, 1485, -3408
4050, -14501, -1922, -3346, -11659, 1209, -3546
4060, -14204, -2166, -3151, -12004, 863, -3778
4070, -14587, -2415, -2119, -12444, 356, -3910
4080, -14820, -1958, -1549, -12141, 343, -3492
4090, -14815, -1764, -1168, -11411, 471, -3059
4100, -14951, -2016, -1551, -9566, 942, -2404
4110, -14958, -2133, -2172, -9137, 1076, -2179
4120, -15145, -2270, -2502, -9230, 937, -2216
4130, -15341, -2231, -2345, -9616, 566, -2245
4140, -15821, -2011, -1484, -10276, -620, -2412
4150, -16140, -1821, -896, -10409, -1259, -2428
4160, -16929, -1367, 168, -10023, -1754, -2318
4170, -17370, -1243, 488, -9534, -1667, -2288
4180, -17737, -1242, 537, -8944, -1347, -2175
4190, -17585, -1490, -130, -7545, -511, -1716
4200, -17230, -1770, -648, -6957, -487, -1517
4210, -17046, -1820, -1037, -6604, -887, -1443
4220, -17114, -1447, -894, -6540, -1492, -1440
4230, -17372, -898, -498, -6886, -2946, -1307
4240, -17233, -507, -80, -7163, -3489, -1120
4250, -17185, -351, 257, -7452, -3763, -996
4260, -17593, -610, 82, -7528, -4063, -800
4270, -18266, -961, -385, -7360, -4215, -812
4280, -19378, -1484, -1038, -7190, -4423, -1068
4290, -21530, -2618, -1684, -6519, -4294, -1662
4300, -21124, -2162, -2484, -5147, -3151, -915
4310, -18720, -679, -3561, -3516, -2217, 494
4320, -13220, 462, -5294, -2716, -1984, 2465
4330, -11772, -155, -6235, -3315, -2457, 2578
4340, -12127, -963, -6963, -4553, -3430, 1975
4350, -13590, -718, -6054, -7987, -4045, 703
4360, -13768, 561, -5387, -9026, -2733, 414
4370, -13958, 1771, -4844, -9429, -1284, 132
4380, -16979, 2182, -3824, -8640, 1333, -780
4390, -18276, 1673, -3935, -7052, 2088, -312
4400, -18828, 945, -4567, -5341, 2346, 480
4410, -18252, -50, -4792, -4460, 1626, 1588
4420, -17562, -531, -4172, -4876, 936, 1635
4430, -17050, -722, -3441, -5416, 413, 1436
4440, -16447, -693, -2696, -5875, 147, 1216
4450, -15722, -275, -1803, -6427, 273, 582
4460, -15568, 46, -1611, -6566, 507, 309
4470, -15526, 447, -1621, -6547, 807, 184
4480, -15155, 1052, -2332, -6080, 1306, 385
4490, -14881, 1120, -2933, -5689, 1351, 538
4500, -14663, 1183, -3524, -5449, 1328, 630
4510, -14055, 1329, -4175, -5893, 1181, 567
4520, -13796, 1144, -3978, -6368, 1181, 377
4530, -13600, 900, -3382, -6707, 985, 173
4540, -13569, 811, -2702, -6734, 490, 27
4550, -13834, 523, -1808, -6105, 473, 1
4560, -14211, 505, -1529, -5713, 806, -2
4570, -14596, 547, -1258, -5364, 1008, 9
4580, -15157, 1041, -833, -4734, 801, 90
4590, -15386, 1412, -915, -4470, 894, 44
4600, -15611, 1657, -1150, -4281, 1289, -45
4610, -15776, 1903, -2014, -4054, 515, -752
4620, -15492, 1695, -2002, -4246, 302, -1118
4630, -15486, 1555, -2010, -4081, 221, -1214
4640, -15507, 1343, -1955, -3873, 92, -1242
4650, -16005, 929, -1644, -3437, 49, -1241
4660, -16271, 794, -1389, -3207, 143, -1140
4670, -16521, 728, -1081, -2843, 203, -1022
4680, -16996, 514, -899, -1713, 315, -648
4690, -17352, 327, -996, -1073, 138, -496
4700, -17864, 369, -1348, -442, -83, -402
4710, -18435, 606, -1715, -13, -164, -315
4720, -19240, 1589, -2179, 349, -46, -41
4730, -19241, 2203, -2267, 521, -204, 114
4740, -19026, 2592, -2147, 649, -551, 183
4750, -18382, 2212, -1308, 990, -1216, 183
4760, -17961, 1820, -996, 1266, -1573, 225
4770, -17497, 1607, -718, 1581, -2036, 319
4780, -17016, 1375, -417, 1806, -2416, 382
4790, -16549, 1294, 68, 2404, -2877, 592
4800, -16998, 1412, -302, 2932, -2846, 649
4810, -18363, 1519, -1445, 3528, -2685, 772
4820, -20022, 95, -4359, 3979, -2530, 1070
4830, -20428, -1281, -5111, 4038, -2447, 1885
4840, -19212, -2613, -5134, 3885, -2693, 1828
4850, -16415, -3064, -5238, 4210, -1589, 1262
4860, -15673, -2777, -5806, 4186, -802, 898
4870, -15257, -2420, -6399, 3960, -610, 500
4880, -14898, -2335, -7252, 3662, -866, -8
4890, -14620, -3105, -7259, 3979, -360, -134
4900, -14365, -4364, -7121, 4657, 434, -317
4910, -14428, -5664, -6801, 5488, 863, -481
4920, -15868, -6560, -5929, 6477, 36, -701
4930, -16686, -5903, -5290, 6446, -449, -929
4940, -17211, -4946, -4622, 6280, -424, -1266
4950, -17469, -3077, -3500, 6022, 709, -1807
4960, -17029, -2376, -3191, 6049, 734, -1858
4970, -16319, -1950, -2993, 6099, 253, -1805
4980, -14712, -1941, -3742, 6192, -151, -1685
4990, -14228, -2097, -4283, 6388, -163, -1596
5000, -13915, -2356, -4693, 6352, 129, -1651
5010, -13825, -2621, -4934, 6343, 466, -1732
5020, -13869, -2516, -4745, 6524, 802, -1616
5030, -13915, -2280, -4453, 6629, 952, -1543
5040, -14147, -2142, -4046, 6623, 1177, -1603
5050, -14827, -2186, -2911, 6454, 1266, -1730
5060, -15194, -2308, -2259, 5838, 804, -2067
5070, -15606, -2669, -1429, 5491, 252, -2375
5080, -15612, -3288, -368, 5919, 40, -2243
5090, -15641, -3572, -317, 6517, 418, -2164
5100, -15830, -3735, -395, 7006, 879, -2210
5110, -16161, -3747, -856, 7811, 1594, -2128
5120, -16142, -3674, -1107, 8282, 1585, -1885
5130, -15887, -3385, -1520, 8676, 1353, -1479
5140, -14992, -2697, -1951, 9000, 554, -506
5150, -14498, -2352, -2048, 9031, 116, -38
5160, -14088, -2196, -2175, 9029, -395, 336
5170, -13894, -2235, -2282, 8948, -822, 612
5180, -14239, -2300, -2201, 8465, -1222, 935
5190, -14513, -2206, -1995, 8121, -1412, 1133
5200, -14761, -2117, -1734, 7826, -1682, 1348
5210, -14896, -2212, -1248, 7581, -2242, 1794
5220, -14874, -2392, -1015, 7550, -2479, 1975
5230, -14911, -2505, -817, 7529, -2650, 2124
5240, -14971, -2081, -266, 7438, -2423, 2505
5250, -15189, -1821, 148, 7392, -1935, 2642
5260, -15480, -1657, 532, 7439, -1211, 2802
5270, -15953, -1595, 766, 7661, -498, 2999
5280, -16821, -2425, 677, 8467, -44, 3440
5290, -17361, -3477, 324, 8789, -147, 3454
5300, -17950, -4511, -11, 8902, -312, 3401
5310, -18554, -5387, -37, 8562, -738, 3164
5320, -18671, -5028, 326, 8149, -856, 2981
5330, -18291, -3455, 1514, 7513, -1193, 2648
5340, -18190, -2377, 1769, 7526, -1427, 2491
5350, -18325, -1620, 1751, 7449, -1556, 2321
5360, -18467, -1010, 1648, 7004, -1648, 2120
5370, -18651, -1018, 2092, 4872, -2434, 1455
5380, -18318, -1637, 2429, 3670, -3023, 1071
5390, -17538, -2511, 2635, 2727, -3739, 656
5400, -17628, -4649, 1829, 2376, -4823, -305
5410, -18248, -5755, 393, 3467, -4838, -369
5420, -18382, -6635, -1250, 5362, -4776, -7
5430, -17983, -7859, -4572, 8856, -3446, 925
5440, -17625, -7570, -5587, 9381, -2413, 1067
5450, -17542, -6422, -5949, 9166, -1481, 823
5460, -18279, -1116, -4900, 8968, -368, 575
5470, -18204, 1301, -4844, 9921, 412, 976
5480, -16676, 2574, -4833, 11020, 767, 1783
5490, -15060, 2365, -4878, 11884, 804, 2425
5500, -14091, -348, -6111, 12359, 899, 2555
5510, -14060, -2646, -7224, 11594, 618, 2239
5520, -14298, -4469, -7674, 10164, -65, 1764
5530, -14696, -5579, -7180, 8551, -644, 1288
5540, -16908, 857, 2854, 7013, 1146, 1904
5550, -15833, 567, 1980, 9720, 1243, 2516
5560, -15295, 68, 335, 11443, 1187, 2710
5570, -15209, -706, -2021, 11367, 672, 2377
5580, -15213, -705, -2639, 10591, 584, 2107
5590, -14661, -184, -2924, 9068, 815, 1821
5600, -14438, 196, -2754, 8400, 1098, 1726
5610, -14358, 438, -2651, 7926, 1250, 1571
5620, -14986, 498, -2400, 7091, 1039, 1153
5630, -15459, 528, -2159, 6567, 1194, 1039
5640, -15748, 611, -1771, 6030, 1468, 997
5650, -15948, 701, -1291, 5540, 1606, 995
5660, -15865, 901, -380, 4981, 1357, 1107
5670, -15531, 844, -27, 4842, 1251, 1170
5680, -15289, 660, 246, 4696, 1261, 1133
5690, -14913, 432, 720, 4604, 654, 968
5700, -14991, 415, 811, 4641, 224, 834
5710, -15180, 535, 518, 4665, 68, 715
5720, -15258, 592, -133, 4568, 173, 603
5730, -14916, 479, -80, 4052, -310, 346
5740, -14692, 362, 13, 3793, -492, 195
5750, -14650, 362, 28, 3608, -427, 69
5760, -14997, 655, -205, 3323, -203, -163
5770, -15281, 805, -258, 3154, -163, -266
5780, -15574, 981, -87, 2905, -48, -365
5790, -16578, 1886, 224, 2670, 419, -433
5800, -16880, 2522, -4, 2807, 407, -270
5810, -16833, 2932, -633, 3068, -3, -40
5820, -16311, 1601, -2145, 3136, -855, 457
5830, -16292, 8, -2134, 2789, -787, 635
5840, -16669, -1385, -1514, 2529, -178, 623
5850, -17988, -411, -417, 2984, 1756, 291
5860, -19354, 1246, -640, 3232, 2508, 129
5870, -20600, 2550, -973, 3272, 2484, 214
5880, -21013, 3248, -651, 2916, 466, 724
5890, -20091, 2621, 243, 2591, -409, 869
5900, -18985, 2167, 1185, 2433, -892, 1025
5910, -18099, 2029, 1903, 2504, -1088, 1232
5920, -18572, 1678, 1102, 3526, -2108, 1483
5930, -20327, 901, -427, 4134, -2344, 1815
5940, -22310, -24, -2171, 4686, -2321, 2290
5950, -23300, -2707, -4769, 4724, -3057, 3347
5960, -20876, -3649, -4162, 4036, -4467, 3409
5970, -18182, -3806, -3154, 3616, -5368, 2821
5980, -15922, -3402, -3103, 3694, -4957, 2174
5990, -14567, -2985, -5122, 4809, -4851, 1136
6000, -14652, -3667, -5950, 5381, -5650, 759
6010, -14422, -4634, -6348, 5634, -5697, 533
6020, -13525, -6737, -6129, 5448, -2987, 23
6030, -14544, -7462, -5718, 5335, -1710, -488
6040, -16874, -4796, -3965, 5354, -1123, -1058
6050, -16931, -3334, -2816, 5180, -266, -1292
6060, -16462, -2068, -1735, 4826, 704, -1393
6070, -16060, -1067, -902, 4517, 1089, -1464
6080, -15482, -562, -261, 4439, -313, -1329
6090, -15373, -865, -649, 4603, -1180, -1351
6100, -15310, -1089, -1448, 4694, -1527, -1407
6110, -14876, -1265, -3118, 4202, -1182, -1442
6120, -14699, -1192, -3488, 3881, -1104, -1531
6130, -14418, -1167, -3505, 3608, -1138, -1537
6140, -13728, -1321, -2761, 3093, -723, -1568
6150, -13398, -1374, -2135, 2755, -278, -1542
6160, -13343, -1630, -1368, 2336, 114, -1604
6170, -13838, -2237, 384, 1442, 719, -1905
6180, -14229, -2279, 1183, 1283, 671, -2074
6190, -14719, -2239, 1457, 1496, 532, -2206
6200, -14953, -2227, 806, 2826, -548, -2129
6210, -15030, -2215, 85, 3191, -779, -2228
6220, -14856, -2295, -289, 3199, -619, -2302
6230, -14702, -2109, -669, 3093, -230, -2285
6240, -14944, -1381, -741, 2346, 58, -2573
6250, -15162, -701, -529, 1739, 328, -2488
6260, -15840, 365, 349, 573, 588, -2349
6270, -16217, 743, 613, 238, 384, -2174
6280, -16203, 810, 1130, 57, -299, -1841
6290, -15769, 896, 1322, 363, -891, -632
6300, -15565, 623, 1122, 460, -925, -187
6310, -15567, 366, 910, 320, -959, 124
6320, -15643, -39, 724, -73, -945, 306
6330, -15951, -875, 661, -1381, -205, 444
6340, -16148, -1265, 1086, -2072, 323, 474
6350, -16277, -1293, 1828, -2648, 874, 546
6360, -16366, -975, 3364, -3379, 2102, 607
6370, -17067, -1172, 3211, -3311, 1985, 374
6380, -17775, -1568, 2239, -2772, 739, 150
6390, -18399, -2378, -317, -1253, -1610, 12
6400, -18521, -3069, -1285, -724, -1071, 38
6410, -18616, -4243, -1494, -686, 106, -40
6420, -18763, -5187, -616, -1125, 1231, -255
6430, -19159, -4123, 1938, -2513, 2576, -896
6440, -19441, -2187, 3294, -3218, 2317, -1241
6450, -19997, -484, 4454, -3721, 1299, -1549
6460, -20687, 404, 4205, -3880, -1797, -1650
6470, -21316, -640, 2388, -4337, -2869, -2109
6480, -22073, -2000, 529, -5226, -3610, -3325
6490, -17293, 297, -3583, 51, 1105, -1377
6500, -14581, 907, -4621, 2021, 970, 373
6510, -11807, 264, -6126, 2710, -728, 2317
6520, -11966, -262, -6575, 2032, -1461, 2564
6530, -12398, -968, -6773, 1488, -2189, 2389
6540, -12334, -2856, -7847, 874, -1718, 1355
6550, -13471, -3404, -8638, -128, -406, 37
6560, -14950, -2658, -8743, -1921, 664, -945
6570, -16741, -858, -7603, -3949, 1410, -1372
6580, -18787, 2314, -3411, -5224, 2285, -790
6590, -18498, 2735, -1918, -4063, 2180, 90
6600, -17306, 2099, -1124, -2629, 1539, 1039
6610, -14778, 381, -1686, -285, 353, 2109
6620, -13848, -111, -2430, 165, 391, 2250
6630, -13248, -305, -3178, -74, 664, 1986
6640, -13154, -451, -3727, -1007, 1027, 1305
6650, -14438, -739, -3582, -3939, 1398, -419
6660, -15119, -631, -3026, -4779, 1528, -783
6670, -15519, -289, -2591, -4696, 1738, -649
6680, -15760, 373, -2436, -3306, 2197, 37
6690, -15745, 643, -2438, -2873, 2152, 289
6700, -15681, 929, -2512, -2736, 2009, 388
6710, -15660, 1548, -2640, -3200, 1671, 257
6720, -15662, 1772, -2597, -3580, 1540, 172
6730, -15478, 1559, -2475, -3804, 1355, -31
6740, -15105, 1083, -2393, -3777, 760, -50
6750, -14523, 450, -2328, -3700, 429, -85
6760, -14048, -102, -2169, -3634, 64, -184
6770, -13685, -482, -1844, -3440, -714, -401
6780, -13537, -487, -1709, -3259, -757, -434
6790, -13559, -438, -1651, -2982, -431, -480
6800, -13761, -254, -1692, -2093, 308, -576
6810, -13957, -295, -1540, -1587, 486, -656
6820, -14289, -305, -1248, -1045, 349, -726
6830, -14587, -287, -1004, -543, 73, -752
6840, -15102, -58, -313, 152, 34, -830
6850, -15470, 158, -142, 436, 30, -937
6860, -15955, 583, -170, 615, -56, -1060
6870, -16775, 1209, -559, 675, -542, -1219
6880, -16875, 998, -676, 655, -1033, -1265
6890, -16882, 362, -891, 831, -1366, -1284
6900, -16873, -407, -1156, 1167, -1461, -1240
6910, -17691, -877, -2069, 1984, -1335, -1274
6920, -18647, -53, -2613, 2242, -886, -1193
6930, -19645, 1153, -3119, 2329, -393, -882
6940, -21004, 3736, -3255, 2054, -987, -9
6950, -21366, 4481, -2893, 1798, -1700, 104
6960, -21280, 4478, -2132, 1467, -2200, 101
6970, -19384, 2846, -104, 762, -2158, 227
6980, -18548, 2147, 798, 558, -2149, 364
6990, -18137, 1906, 1356, 617, -2222, 525
7000, -18274, 2275, 595, 1485, -1360, 1137
7010, -18649, 2254, -647, 2140, -1203, 1526
7020, -19541, 1721, -2208, 2808, -1759, 1728
7030, -20144, 926, -3812, 3315, -2703, 1840
7040, -20336, 278, -5708, 3409, -3658, 1764
7050, -19171, -111, -8094, 1652, -4344, 1127
7060, -18149, -173, -8429, 554, -3826, 799
7070, -17121, -540, -8424, -230, -3129, 577
7080, -14386, -2894, -6166, -557, -2958, 423
7090, -12935, -4087, -4588, 245, -3675, 454
7100, -12139, -5157, -3619, 1381, -4107, 465
7110, -14059, -5963, -3929, 3115, -2799, -223
7120, -15732, -4824, -4963, 2902, -1146, -626
7130, -16602, -3367, -5367, 1844, 253, -841
7140, -16832, -636, -4080, 650, 657, -1114
7150, -15873, 2, -2692, -65, 265, -840
7160, -15327, 26, -1649, 624, -196, -770
7170, -14999, -28, -1165, 1530, -926, -625
7180, -14482, -539, -1444, 2123, -2127, -424
7190, -15027, -706, -2039, 1556, -2012, -687
7200, -15882, -440, -2958, -296, -1625, -1110
7210, -15898, -309, -2966, -992, -1651, -1274
7220, -15720, -392, -2678, -1433, -1741, -1349
7230, -15098, -732, -2231, -1943, -2079, -1355
7240, -14829, -998, -1930, -2416, -2156, -1411
7250, -14751, -1299, -1522, -2952, -2321, -1585
7260, -14817, -1458, -1146, -3450, -2537, -1788
7270, -14764, -1270, -474, -3860, -2887, -1994
7280, -14861, -1061, -307, -3936, -3006, -2107
7290, -14955, -964, -64, -3980, -3139, -2270
7300, -14864, -796, -276, -3356, -2296, -2112
7310, -14712, -598, -617, -2929, -1430, -1859
7320, -14612, -341, -1003, -2722, -771, -1777
7330, -14622, -207, -1144, -2856, -662, -1876
7340, -14898, 119, -870, -3823, -1167, -1976
7350, -15156, 283, -473, -4370, -1410, -1916
7360, -15323, 482, -141, -4740, -1479, -1669
7370, -15107, 622, 162, -4720, -1307, -837
7380, -14611, 659, -7, -4467, -1134, -290
7390, -14126, 520, -201, -4247, -1099, 103
7400, -14090, -193, -657, -4069, -980, 389
7410, -16096, -524, 1038, -6621, -554, 217
7420, -16882, -464, 3164, -7996, 618, 10
7430, -16986, -147, 3880, -8138, 1447, -47
7440, -17090, 235, 3856, -7823, 1831, -134
7450, -17990, 207, 1550, -6063, 247, -312
7460, -18605, -491, -238, -5085, -795, -386
7470, -19088, -1344, -1698, -4550, -1116, -455
7480, -19446, -2356, -2619, -4679, -574, -575
7490, -19069, -3759, -1003, -6679, 870, -1088
7500, -19083, -3281, 1008, -7911, 1070, -1574
7510, -19090, -1843, 3043, -8895, 1008, -1988
7520, -18892, 865, 6191, -9562, -1086, -2189
7530, -18704, 1128, 6201, -8988, -2671, -1953
7540, -19031, 688, 4369, -8057, -3971, -1766
7550, -21597, -1395, -58, -7505, -4674, -2725
7560, -22880, -1797, -1491, -7345, -4099, -3548
7570, -23419, -1450, -2584, -6785, -2739, -3979
7580, -22936, -270, -3708, -5870, -748, -3833
7590, -18086, 2172, -5720, -3473, 1919, -1594
7600, -13635, 1977, -6121, -2833, 1386, 444
7610, -9648, 1216, -6334, -2838, 32, 1745
7620, -9736, -201, -7689, -3784, -1809, 110
7630, -11580, -462, -8214, -4663, -1739, -933
7640, -13553, -345, -8797, -5692, -253, -1752
7650, -17184, 643, -8134, -8676, 4187, -2866
7660, -18594, 1139, -6819, -9904, 5008, -2837
7670, -19648, 1817, -5369, -10406, 4570, -2451
7680, -18063, 2263, -2566, -9166, 2677, -577
7690, -15954, 1941, -2345, -7617, 2350, 328
7700, -14614, 1462, -2819, -6191, 2240, 693
7710, -13653, 1063, -4479, -5123, 2572, 808
7720, -13358, 932, -5054, -5633, 2693, 588
7730, -13259, 687, -5385, -6629, 2764, 50
7740, -13774, 205, -5025, -9074, 3231, -1042
7750, -14186, 299, -4646, -9868, 3535, -1265
7760, -14636, 450, -4347, -10166, 3787, -1348
7770, -15437, 750, -3997, -9807, 3804, -1346
7780, -15609, 830, -3903, -9485, 3886, -1310
7790, -15598, 769, -3801, -9133, 3988, -1246
7800, -15569, 663, -3740, -8847, 4018, -1240
7810, -15218, 763, -3751, -8610, 3654, -1318
7820, -15223, 958, -3856, -8722, 3566, -1496
7830, -15368, 1085, -3907, -8919, 3368, -1693
7840, -15816, 1537, -3663, -9344, 2334, -2005
7850, -16111, 1614, -3484, -9426, 1779, -2110
7860, -16287, 1691, -3354, -9395, 1469, -2117
7870, -15905, 1543, -3044, -8855, 1009, -1827
7880, -15586, 1470, -3069, -8386, 750, -1703
7890, -15232, 1443, -3211, -8060, 592, -1641
7900, -14651, 1161, -3003, -7897, 531, -1876
7910, -14523, 1010, -2792, -7808, 328, -2061
7920, -14489, 973, -2540, -7689, 9, -2222
7930, -14264, 1166, -2084, -7255, -552, -2389
7940, -14146, 1253, -1977, -7066, -676, -2489
7950, -14166, 1316, -1905, -6884, -773, -2639
7960, -14445, 1584, -2048, -6625, -974, -2780
7970, -14746, 1416, -2108, -6439, -1049, -2767
7980, -15114, 1077, -2139, -6056, -1267, -2714
7990, -15854, 27, -2087, -5478, -1844, -2486
8000, -16214, -489, -1996, -4162, -2073, -2430
8010, -16708, -843, -1903, -3578, -2238, -2432
8020, -17356, -955, -1736, -3050, -2386, -2463
8030, -18815, -123, -1492, -2244, -2323, -2200
8040, -19301, 557, -1500, -1897, -2246, -1916
8050, -19517, 1146, -1647, -1600, -2165, -1650
8060, -19415, 1896, -2296, -1242, -2550, -1322
8070, -19095, 2100, -2593, -1224, -2872, -1172
8080, -18814, 2171, -2579, -1225, -3285, -1071
8090, -18366, 2243, -2051, -926, -3888, -786
8100, -18099, 2416, -1704, -645, -3844, -545
8110, -18342, 3464, -1733, -360, -3190, -51
8120, -18983, 4229, -2278, -646, -2475, 226
8130, -20225, 4539, -3211, -1087, -1714, 492
8140, -21420, 3991, -4522, -1455, -1284, 802
8150, -20819, 1363, -6463, -1876, -2363, 1108
8160, -19494, 575, -6466, -2145, -3242, 613
8170, -17714, 534, -6220, -2551, -3652, 72
8180, -14017, 1569, -6270, -4139, -3219, -466
8190, -12515, 1730, -6372, -5086, -2685, -592
8200, -11288, 1007, -5939, -5714, -2193, -669
8210, -12204, -3107, -3722, -4092, -4153, -1076
8220, -13537, -4165, -3488, -2333, -6131, -865
8230, -15684, -4098, -3944, -1079, -6142, -792
8240, -17669, -3340, -4838, -716, -4467, -878
8250, -18766, -1433, -5478, -2634, -1413, -817
8260, -17509, -245, -4880, -3999, -763, -752
8270, -15818, 725, -4212, -5069, -451, -762
8280, -13955, 1648, -3670, -6211, -166, -1189
8290, -14091, 1881, -3754, -6285, -484, -1366
8300, -14541, 1614, -3947, -6177, -1233, -1438
8310, -15416, -839, -2350, -8838, -3790, -2209
8320, -15247, -762, -1849, -9757, -4056, -2352
8330, -15423, -318, -834, -10768, -4917, -2611
8340, -15776, 0, -470, -10995, -5377, -2688
8350, -16417, 221, -149, -11227, -5670, -2909
8360, -17714, 471, 204, -10928, -4848, -3028
8370, -17778, 658, 83, -10095, -3812, -2633
8380, -17338, 621, -353, -8860, -2658, -2105
8390, -15471, -591, -2403, -6303, -67, -1523
8400, -13174, -1026, -5257, -5919, 2312, -1515
8410, -13044, -411, -5256, -7372, 1777, -2141
8420, -13353, 43, -4337, -9036, 440, -2805
8430, -13729, -261, -3297, -9863, -648, -3295
8440, -14102, -1509, -2488, -9576, -395, -3766
8450, -14298, -1945, -2097, -9728, -152, -3900
8460, -14369, -2177, -1337, -10215, -438, -3790
8470, -14321, -2485, 551, -10360, -982, -2769
8480, -14347, -2251, 1112, -9626, -764, -2080
8490, -14463, -1821, 1080, -8625, -564, -1589
8500, -15522, -1221, 298, -7230, -961, -1064
8510, -15794, -1011, 204, -7086, -1465, -698
8520, -15830, -931, 256, -7118, -1815, -352
8530, -16097, -902, 447, -7322, -2139, -2
8540, -16547, -732, 766, -7583, -2461, 100
8550, -17625, 13, 1936, -7828, -2811, 205
8560, -18045, 287, 2355, -7346, -2532, 300
8570, -18557, 162, 2394, -6678, -1889, 168
8580, -18961, -445, 2257, -5961, -1313, 116
8590, -19050, -2227, 1220, -4715, -401, 29
8600, -18830, -2913, 701, -4476, -256, -66
8610, -18442, -3068, 497, -4460, -435, -189
8620, -17823, -1564, 1431, -5037, -1242, -358
8630, -17555, -893, 2397, -5327, -1742, -315
8640, -17409, -546, 3324, -5473, -2274, -281
8650, -17326, -326, 4174, -5486, -2725, -215
8660, -17481, -303, 4862, -4959, -2978, -107
8670, -18334, -898, 4052, -4452, -2740, -275
8680, -20068, -1835, 2558, -3993, -2501, -770
8690, -22963, -3207, -241, -2676, -2597, -2361
8700, -23279, -2904, -1633, -1662, -1947, -2853
8710, -22394, -1672, -2994, -652, -797, -2640
8720, -20058, 438, -4049, -58, 88, -1738
8730, -14063, 2520, -4240, -736, -431, 549
8740, -12057, 2460, -4576, -1071, -1258, 1027
8750, -12884, 2017, -5388, -1251, -2042, 418
8760, -14474, 1002, -7049, -1682, -2419, -219
8770, -15147, 1024, -7707, -3556, -474, -331
8780, -15100, 1719, -7817, -5249, 565, -530
8790, -16331, 2479, -5932, -7798, 1416, -715
8800, -16822, 2930, -5362, -7678, 1669, -345
8810, -16928, 3017, -5009, -7186, 1736, 208
8820, -15939, 1864, -4244, -6736, 1338, 739
8830, -15167, 1460, -3753, -6955, 1197, 802
8840, -14580, 1367, -3093, -7320, 1110, 820
8850, -13963, 1881, -2203, -7645, 1078, 828
8860, -13395, 2071, -1983, -8438, 1753, 476
8870, -13801, 1987, -2058, -8697, 2532, 137
8880, -14630, 1703, -2501, -8761, 3375, -150
8890, -15763, 1356, -4093, -8289, 4525, -150
8900, -15806, 1049, -4880, -8149, 4575, -154
8910, -15497, 597, -5217, -8402, 4340, -188
8920, -14507, -150, -4590, -9456, 4021, -566
8930, -14189, -218, -4038, -9841, 3981, -808
8940, -14197, -85, -3566, -10083, 3891, -1021
8950, -14351, 695, -2835, -10181, 3782, -1205
8960, -15371, 1028, -2537, -10034, 3574, -1418
8970, -16028, 1428, -2308, -9803, 3441, -1425
8980, -16670, 1724, -2276, -9472, 3292, -1391
8990, -17069, 2142, -2480, -8954, 2876, -1124
9000, -16838, 2372, -2785, -8917, 2603, -1028
9010, -15985, 2201, -3245, -9254, 2120, -1241
9020, -15667, 1727, -3098, -9357, 1678, -1433
9030, -15389, 1222, -2892, -9281, 1044, -1588
9040, -15161, 845, -2690, -9056, 477, -1720
9050, -14857, 345, -2186, -8509, -137, -1862
9060, -14785, 84, -1843, -8214, -396, -1975
9070, -14661, -31, -1529, -7862, -629, -2088
9080, -14530, 303, -973, -7171, -660, -2276
9090, -14467, 744, -846, -6803, -545, -2327
9100, -14507, 1185, -791, -6411, -403, -2355
9110, -14700, 1506, -879, -6006, -321, -2365
9120, -15277, 1567, -1323, -5208, -500, -2316
9130, -15401, 1182, -1446, -4844, -746, -2246
9140, -15436, 601, -1343, -4457, -1111, -2192
9150, -15752, -526, -890, -3219, -1761, -2208
9160, -16098, -933, -860, -2448, -1802, -2200
9170, -16796, -1291, -886, -1671, -1670, -2208
9180, -17606, -1243, -1144, -959, -1360, -2143
9190, -19461, 43, -2116, -105, -765, -2052
9200, -19887, 1112, -2502, -231, -800, -1836
9210, -19822, 2203, -2683, -574, -1245, -1633
9220, -18668, 4437, -1533, -1466, -2817, -1416
9230, -18725, 4382, -1162, -1274, -2367, -1179
9240, -18772, 4106, -761, -1114, -2096, -808
9250, -18982, 3465, -201, -1180, -1347, -91
9260, -19579, 3456, -404, -1366, -612, 158
9270, -20313, 3346, -1182, -1483, -275, 441
9280, -20080, 2082, -4271, -1624, -1727, 582
9290, -19668, 1502, -5682, -2000, -2740, 92
9300, -18978, 1309, -6839, -2635, -3369, -350
9310, -17892, 1369, -7706, -3500, -3477, -605
9320, -14588, 784, -8348, -5427, -2666, -728
9330, -12926, 111, -7980, -6022, -2090, -703
9340, -11947, -1463, -6706, -5995, -1660, -761
9350, -13599, -4867, -4520, -3317, -3518, -971
9360, -14951, -5103, -4068, -1793, -4170, -764
9370, -16624, -4407, -3913, -873, -3497, -794
9380, -17861, -2968, -4488, -706, -2149, -845
9390, -18103, 62, -4448, -2794, 29, -909
9400, -17597, 1085, -4014, -4323, -60, -1101
9410, -16794, 1472, -3156, -5584, -818, -1230
9420, -15599, 1095, -2251, -6219, -2359, -1400
9430, -15060, 1054, -2406, -6216, -2618, -1420
9440, -14734, 965, -2980, -6354, -2770, -1487
9450, -14517, 552, -3107, -6997, -3465, -1742
9460, -14498, 288, -3244, -7265, -3808, -1824
9470, -14663, -213, -3422, -7643, -3751, -1946
9480, -14872, -1416, -3272, -8796, -3060, -2228
9490, -15031, -1898, -2902, -9257, -3080, -2487
9500, -15131, -2163, -2293, -9620, -3428, -2664
9510, -15038, -2290, -873, -9612, -4165, -2706
9520, -15120, -2219, -415, -9377, -4331, -2778
9530, -15270, -2020, 11, -9069, -4114, -2878
9540, -15350, -1113, -202, -7652, -2597, -2489
9550, -15195, -713, -784, -6887, -1691, -2167
9560, -15170, -579, -1185, -6415, -1043, -2135
9570, -15409, -418, -1856, -6253, -231, -1993
9580, -15359, -238, -1985, -6326, -242, -1718
9590, -15224, -6, -2033, -6449, -554, -1474
9600, -15028, 83, -1611, -6753, -1435, -1249
9610, -14751, -91, -1391, -6730, -1702, -935
9620, -14217, -456, -1147, -6752, -1918, -545
9630, -13828, -826, -921, -6790, -1951, -297
9640, -13591, -930, -565, -6618, -1632, 1
9650, -13822, -787, -178, -6440, -1661, 133
9660, -14075, -605, 129, -6044, -1642, 378
9670, -14331, -643, 472, -5121, -1499, 777
9680, -14536, -879, 682, -4984, -1245, 787
9690, -15636, -2073, 1263, -5545, -508, 256
9700, -16292, -2499, 1715, -6173, -234, -10
9710, -16657, -2401, 2344, -6741, -151, -108
9720, -16796, -1186, 3216, -6663, 575, -214
9730, -16953, -636, 2592, -5872, 929, -295
9740, -17262, -563, 1327, -4786, 712, -356
9750, -18242, -1572, -1618, -2459, 236, -513
9760, -18942, -2185, -3072, -1787, 900, -715
9770, -19419, -2755, -3454, -2213, 1190, -888
9780, -19773, -2976, -2095, -3500, 767, -1099
9790, -19603, -659, 1956, -5725, 327, -1230
9800, -19275, 851, 3712, -6639, 213, -1131
9810, -19373, 1897, 5341, -7632, -569, -1234
9820, -19649, 2031, 7812, -8930, -3124, -1538
9830, -19663, 1489, 7179, -8287, -4262, -1455
9840, -20050, 737, 5221, -7222, -5361, -1418
9850, -21166, -1679, 668, -5325, -5701, -1831
9860, -21592, -2878, -1006, -4310, -4944, -2330
9870, -22005, -3379, -2450, -3260, -3606, -2834
9880, -20097, -1412, -3759, -2297, -474, -2427
9890, -17480, 390, -3756, -1944, 59, -1393
9900, -14902, 1374, -3571, -1694, -190, -416
9910, -10862, 1194, -3790, -1203, -712, 1071
9920, -11527, 482, -4984, -830, -629, 690
9930, -12674, -741, -6337, -815, -471, 59
9940, -14254, -2125, -8868, -1850, 1516, -991
9950, -15264, -1068, -9256, -3349, 2799, -1510
9960, -16531, 1201, -8160, -5483, 3787, -1778
9970, -19020, 4658, -3666, -7682, 4476, -1455
9980, -18580, 4702, -2268, -6728, 3884, -466
9990, -16588, 3604, -2038, -5003, 3095, 682
10000, -14418, 950, -3954, -2542, 2532, 1449
10010, -14332, 437, -4522, -2649, 2454, 1435
10020, -14398, 284, -4613, -3313, 2270, 1330
10030, -14387, 90, -4501, -4111, 2195, 1099
10040, -14831, -187, -4076, -5730, 2775, 170
10050, -15028, -134, -3659, -6582, 3076, -206
10060, -15316, -2, -3193, -7278, 3302, -480
10070, -16006, 157, -2656, -7617, 3397, -786
10080, -16016, 428, -2550, -7424, 3304, -686
10090, -15834, 674, -2452, -7109, 3285, -491
10100, -15397, 1172, -2569, -6257, 3242, -148
10110, -15264, 1438, -2673, -6032, 3069, 8
10120, -15227, 1736, -2771, -6057, 2589, 26
10130, -15158, 1171, -2564, -5958, 1568, -118
10140, -14977, 917, -2543, -5876, 1431, -187
10150, -14590, 502, -2255, -5738, 386, -432
10160, -14514, 429, -2082, -5618, -58, -571
10170, -14506, 430, -1994, -5529, -100, -650
10180, -14357, 487, -1943, -5412, 57, -658
10190, -14266, 734, -1466, -5193, 224, -755
10200, -14295, 947, -1053, -4995, 34, -755
10210, -14395, 1108, -612, -4614, -256, -751
10220, -14841, 1289, 94, -3688, -577, -902
10230, -15189, 1223, 306, -3335, -500, -1108
10240, -15586, 1146, 367, -3161, -387, -1360
10250, -15861, 976, 334, -3052, -465, -1621
10260, -16158, 941, -89, -2898, -1169, -1984
10270, -16097, 964, -464, -2739, -1568, -2011
10280, -15910, 841, -805, -2512, -1986, -1966
10290, -15529, -78, -1519, -1876, -2882, -1848
10300, -15685, -614, -1894, -1490, -2862, -1844
10310, -16260, -958, -2327, -1007, -2563, -1891
10320, -17180, -940, -2855, -548, -2161, -1909
10330, -19066, 224, -3406, -42, -1307, -1501
10340, -19648, 1084, -3357, 178, -1022, -1164
10350, -20104, 2182, -2674, 526, -1556, -893
10360, -20392, 2467, -2067, 704, -2057, -885
10370, -20516, 2779, -1392, 862, -2474, -869
10380, -20842, 3502, -260, 738, -1892, -819
10390, -20760, 3777, 310, 370, -1187, -667
10400, -20671, 3680, 1006, 3, -968, -484
10410, -20189, 3608, 1785, -258, -1353, -154
10420, -19339, 3826, 1646, 48, -1809, 514
10430, -19797, 4021, -368, 407, -1565, 757
10440, -20394, 3640, -2770, 566, -1982, 1043
10450, -19651, 1066, -5413, 139, -3629, 1184
10460, -18824, -31, -6038, -3, -3574, 721
10470, -17644, -188, -6625, -147, -3327, 257
10480, -16169, 23, -7162, -640, -3155, -76
10490, -13493, -696, -7442, -2403, -2551, -825
10500, -12924, -2077, -6917, -2851, -2264, -1230
10510, -13103, -3636, -5914, -2526, -2364, -1421
10520, -13657, -5931, -4818, 196, -2575, -1053
10530, -14699, -6420, -4876, 1550, -2023, -1116
10540, -16107, -5511, -5689, 2122, -1456, -1275
10550, -17473, -1665, -5644, -126, 159, -1492
10560, -16986, 15, -4375, -1400, 439, -1544
10570, -16363, 1086, -3073, -1862, 275, -1562
10580, -15104, 1239, -1499, -1185, -436, -1280
10590, -14745, 1054, -1465, -849, -947, -1187
10600, -14715, 693, -1607, -850, -1420, -1194
10610, -15532, -341, -2104, -1759, -1971, -1528
10620, -15931, -594, -2184, -2418, -2001, -1723
10630, -15936, -758, -2091, -3097, -1934, -1733
10640, -15511, -994, -1890, -3975, -2368, -1827
10650, -15342, -1011, -1709, -4393, -2723, -1890
10660, -15157, -1134, -1528, -4761, -2825, -1923
10670, -14911, -1308, -1415, -5012, -2909, -1935
10680, -14577, -1465, -883, -5391, -3668, -2022
10690, -14487, -1424, -715, -5469, -3881, -2011
10700, -14598, -1472, -469, -5558, -4004, -2125
10710, -15040, -1905, 84, -5319, -3835, -2369
10720, -15110, -2091, 170, -4714, -3207, -2275
10730, -14905, -2178, -3, -3888, -2240, -2017
10740, -14363, -1737, -915, -2637, -380, -1583
10750, -14406, -1369, -1208, -2671, 12, -1527
10760, -14599, -900, -1183, -2999, -102, -1502
10770, -15039, -68, -557, -3722, -1244, -1420
10780, -15003, -21, -41, -3828, -1556, -1224
10790, -14736, -238, 201, -3615, -1477, -906
10800, -13540, -1186, 319, -3166, -1377, -416
10810, -13126, -1600, 352, -2925, -1417, -322
10820, -13124, -1910, 358, -2603, -1216, -275
10830, -14632, -2135, 324, -1664, -1051, -123
10840, -15349, -2207, 471, -1107, -1474, 138
10850, -16025, -2360, 794, -739, -1846, 345
10860, -16963, -2812, 2113, -1011, -878, 474
10870, -17093, -3117, 2870, -1485, 687, 537
10880, -16924, -3435, 3455, -1997, 2293, 514
10890, -17064, -3478, 4033, -2473, 2448, -424
10900, -17538, -2474, 3939, -1866, 1028, -1039
10910, -18120, -1282, 3046, -661, -46, -1297
10920, -18598, -491, 1561, 613, -602, -1124
10930, -19471, -523, -1343, 1784, -765, -879
10940, -19467, -243, -1272, 737, -592, -986
10950, -19048, 100, 303, -930, -837, -1115
10960, -18223, 1700, 3575, -2815, -2279, -1245
10970, -18067, 2353, 4408, -3038, -3190, -1233
10980, -18234, 2589, 4487, -3153, -3934, -1270
10990, -19420, 1555, 3794, -3970, -4828, -1109
11000, -20107, 356, 3325, -4342, -4855, -986
11010, -21215, -1243, 2320, -4428, -4480, -1086
11020, -19399, -5233, -4516, 3283, -1555, 429
11030, -16631, -4549, -6173, 4447, -292, 1119
11040, -12859, -3050, -7658, 3616, 267, 1171
11050, -12199, -1895, -7173, 2239, 110, 842
11060, -11813, -720, -6146, 777, -118, 619
11070, -13043, -203, -4212, -1212, -71, -322
11080, -15164, -577, -3671, -1808, 182, -872
11090, -17711, -586, -2901, -2494, 213, -1047
11100, -19826, -269, -1117, -3356, -334, -751
11110, -20608, 61, 2569, -1805, -225, 952
11120, -18246, -162, 1861, 1066, 579, 2182
11130, -15991, -585, 76, 3393, 463, 2904
11140, -14016, -1925, -2890, 3679, -86, 2569
11150, -13747, -2320, -3521, 2432, -177, 2101
11160, -13866, -2611, -3574, 1058, -116, 1601
11170, -15369, -3239, -2961, -198, 649, 743
11180, -15881, -3272, -2532, 179, 1164, 639
11190, -15857, -2876, -2052, 786, 1675, 747
11200, -15528, -1702, -1017, 1734, 2058, 1023
11210, -15518, -1357, -496, 2111, 1719, 1121
11220, -15310, -615, 495, 2833, 503, 1411
11230, -15299, -223, 726, 3205, 121, 1561
11240, -15143, 122, 598, 3607, -21, 1733
11250, -14981, 222, -330, 4126, 62, 1793
11260, -14831, 32, -720, 4213, -198, 1750
11270, -14719, -280, -1073, 4301, -636, 1640
11280, -14365, -765, -1309, 4277, -675, 1436
11290, -14137, -848, -1290, 4290, -469, 1344
11300, -14019, -870, -1283, 4325, -334, 1192
11310, -13887, -760, -1251, 4268, -80, 1111
11320, -14126, -885, -617, 4069, 686, 780
11330, -14383, -992, -116, 4131, 775, 606
11340, -14577, -1006, 338, 4248, 876, 445
11350, -14731, -963, 1001, 4332, 1167, 293
11360, -15030, -610, 1049, 4381, 1589, -30
11370, -15004, -273, 927, 4389, 1496, -113
11380, -14899, 40, 756, 4403, 1324, -189
11390, -14600, 483, 569, 4436, 999, -216
11400, -14427, 745, 626, 4505, 971, -181
11410, -14471, 1064, 666, 4633, 1139, -143
11420, -15120, 2157, 377, 5144, 1729, 45
11430, -15659, 2675, -92, 5428, 1721, 170
11440, -16153, 2700, -621, 5627, 1554, 326
11450, -16804, 1914, -1111, 5631, 1657, 412
11460, -17831, 338, -1540, 4881, 2972, 533
11470, -18307, 377, -1294, 4449, 3016, 391
11480, -18654, 1068, -811, 4109, 2764, 292
11490, -19887, 1827, -163, 3785, 2953, 545
11500, -20478, 1601, 46, 3921, 2951, 716
11510, -20338, 173, 1098, 4114, 3113, 1197
11520, -19770, -208, 2137, 4034, 3198, 1360
11530, -19421, -189, 3271, 4115, 3046, 1389
11540, -19719, 630, 4372, 4510, 2677, 1502
11550, -20412, 1090, 3589, 6364, 698, 1951
11560, -20785, 1612, 1753, 7595, -1178, 2370
11570, -21129, 1540, -992, 8482, -2671, 2768
11580, -22685, -507, -5346, 8433, -4483, 3317
11590, -21800, -2262, -6345, 7938, -5018, 3583
11600, -19981, -3541, -6743, 7404, -4886, 3358
11610, -15616, -3702, -6484, 6282, -3053, 2202
11620, -13835, -3205, -6089, 5710, -2154, 1753
11630, -12388, -2782, -5622, 5261, -1866, 1394
11640, -11244, -2633, -5358, 5156, -1857, 976
11650, -12821, -3724, -6266, 5875, -712, -107
11660, -15116, -4323, -7283, 6355, 49, -434
11670, -17276, -4374, -7975, 6505, 556, -620
11680, -19527, -3305, -5139, 5761, 1018, -612
11690, -19138, -2915, -3002, 6152, 890, -541
11700, -18170, -2760, -1636, 6916, 849, -476
11710, -16644, -2516, -756, 7281, 934, -327
11720, -15000, -2119, -44, 6565, 8, -798
11730, -14923, -1871, -108, 6102, -883, -1141
11740, -14964, -1551, -1740, 5916, -1622, -1312
11750, -15275, -1240, -2806, 5865, -1252, -1414
11760, -15441, -724, -3893, 5706, -675, -1401
11770, -15068, -86, -5076, 4715, -2, -1248
11780, -14750, -154, -4881, 3917, -61, -1379
11790, -14332, -415, -4031, 3128, -212, -1521
11800, -13529, -1156, -2385, 2449, -1210, -1813
11810, -13706, -1493, -1662, 1977, -1557, -2208
11820, -14240, -1872, -668, 1297, -1784, -2758
11830, -15427, -2521, 924, 1305, -1440, -3561
11840, -15841, -2719, 1019, 2251, -478, -3652
11850, -15834, -2944, 626, 3590, 900, -3463
11860, -15527, -2986, -74, 4948, 2418, -3037
11870, -14863, -2576, -1381, 6199, 3843, -2241
11880, -14705, -2379, -1519, 6134, 3330, -2108
11890, -14808, -2220, -1506, 5936, 2423, -2010
11900, -15243, -1738, -1015, 5534, 479, -1365
11910, -15261, -1434, -783, 5585, -36, -659
11920, -14926, -1048, -707, 5746, -409, 112
11930, -15023, -1056, -782, 5866, -1600, 1084
11940, -15949, -2290, -78, 5585, -4715, 2802
11950, -15679, -3128, 1166, 5767, -5764, 3410
11960, -15322, -3172, 2049, 6088, -5579, 3580
11970, -14968, -2950, 3038, 6484, -4259, 3573
11980, -15005, -2769, 3677, 7051, -1703, 3313
11990, -16085, -3043, 2275, 9070, 1504, 2834
12000, -16500, -3169, 894, 10213, 350, 2670
12010, -16934, -3260, -269, 10922, -962, 2462
12020, -18112, -2581, -1581, 10631, -83, 2228
12030, -18865, -1519, -1390, 9760, 760, 2219
12040, -19631, -391, -656, 8648, 791, 2165
12050, -20257, 476, 691, 7403, 162, 1969
12060, -20162, 1367, 3541, 5275, -1012, 1855
12070, -19692, 1127, 4272, 4697, -1708, 1844
12080, -19415, 530, 4594, 4460, -2899, 1773
12090, -19145, -1202, 3353, 4497, -4141, 1683
12100, -19711, -2298, 2120, 5401, -5994, 1226
12110, -19687, -3712, 689, 6139, -6208, 1086
12120, -18714, -5299, -908, 7017, -6082, 1124
12130, -15589, -7975, -4537, 8913, -5499, 1172
12140, -15322, -9194, -5979, 9528, -4665, 806
12150, -15662, -10278, -7015, 10066, -3156, 494
12160, -15143, -8374, -8175, 10312, 269, -342
12170, -15442, -4861, -7316, 9110, 1490, -1151
12180, -15700, -838, -5227, 7627, 1945, -1312
12190, -18372, 4156, -1019, 8156, 1239, -556
12200, -20311, 2284, 16, 10411, -160, 353
12210, -20399, -772, -1210, 13593, -1563, 1601
12220, -18713, -4354, -5027, 16508, -1608, 3129
12230, -17950, -4923, -5231, 15216, -760, 3156
12240, -17477, -4711, -4037, 13390, 160, 2673
12250, -17193, -3904, -2621, 12321, 661, 2050
12260, -15997, -1902, -1150, 12951, 817, 1309
12270, -15095, -1132, -897, 13611, 669, 1235
12280, -14606, -847, -990, 14256, 272, 1089
12290, -14743, -834, -1721, 15246, -398, 1032
12300, -14969, -979, -2079, 15537, -534, 1110
12310, -15184, -1024, -2358, 15733, -459, 1207
12320, -15005, -222, -2355, 15392, 320, 1292
12330, -14789, 360, -1994, 14860, 747, 1299
12340, -14812, 727, -1571, 14458, 728, 1265
12350, -14823, 809, -1299, 14393, 367, 1233
12360, -14940, 744, -1501, 14437, 23, 1281
12370, -14816, 704, -1595, 14271, -151, 1328
12380, -14826, 366, -1594, 13989, -266, 1268
12390, -14794, 95, -1401, 13434, -223, 1023
12400, -14868, 25, -1335, 13197, -55, 915
12410, -14839, 110, -1132, 12632, 351, 675
12420, -14870, 265, -1099, 12382, 448, 545
12430, -14888, 421, -934, 12065, 629, 437
12440, -15061, 499, -591, 11708, 690, 319
12450, -15467, 831, 18, 11040, 375, 152
12460, -15635, 1103, 264, 10728, 234, 172
12470, -15797, 1364, 345, 10464, 152, 187
12480, -15970, 1759, 175, 9997, 31, 169
12490, -16178, 1652, -20, 9691, 55, 64
12500, -16172, 1522, -310, 9306, 85, -36
12510, -15972, 1283, -417, 8733, 93, -165
12520, -15419, 1115, 237, 7485, 295, -504
12530, -15351, 1218, 417, 7102, 607, -581
12540, -15355, 1478, 583, 6757, 888, -623
12550, -15544, 1606, 748, 6454, 1084, -669
12560, -15892, 2066, 888, 5900, 1522, -566
12570, -16091, 2320, 795, 5662, 1553, -502
12580, -16315, 2467, 575, 5433, 1345, -448
12590, -16717, 1553, 98, 4934, 728, -288
12600, -16655, 863, 153, 4517, 1065, -150
12610, -16609, 626, 305, 4127, 1524, -147
12620, -17000, 1484, 580, 3557, 1554, -386
12630, -17676, 1932, 551, 3348, 1556, -395
12640, -19157, 1853, 425, 3323, 1495, 62
12650, -19198, 1461, 342, 3387, 1450, 344
12660, -18934, 842, 657, 3240, 1389, 551
12670, -18537, 413, 1285, 2990, 1431, 588
12680, -18326, -208, 2786, 2819, 1933, 469
12690, -18594, -164, 3414, 3144, 2103, 399
12700, -19009, 48, 3648, 3787, 1903, 431
12710, -20404, 1065, 2394, 5187, 198, 757
12720, -21245, 1535, 946, 5592, -1250, 1086
12730, -22367, 1252, -750, 5733, -2561, 1560
12740, -21592, -1774, -3741, 5554, -4819, 2802
12750, -18691, -3550, -3954, 5293, -5848, 3010
12760, -16330, -4341, -3733, 5270, -6585, 2530
12770, -15161, -3578, -5066, 6558, -6574, 1500
12780, -15359, -3615, -6124, 7171, -6262, 1170
12790, -15036, -4365, -6942, 7461, -5534, 860
12800, -14190, -5543, -7162, 7365, -4055, 469
12810, -14165, -7227, -6921, 6946, -260, -751
12820, -15334, -6139, -6834, 6776, 818, -1053
12830, -16480, -4253, -6302, 6500, 1298, -1067
12840, -16887, -1013, -3255, 6175, 1313, -1033
12850, -16726, 38, -1710, 6106, 611, -1075
12860, -16230, -1439, 62, 6505, -552, -973
12870, -15612, -2011, -1528, 6491, -2641, -1196
12880, -15245, -2104, -2141, 6560, -3164, -1320
12890, -14981, -2158, -2730, 6618, -2855, -1429
12900, -14139, -2391, -3692, 6466, -1443, -1683
12910, -13735, -2568, -3678, 6079, -1154, -1917
12920, -13457, -2654, -3090, 5448, -1120, -2218
12930, -13624, -2557, -1317, 4455, -714, -2646
12940, -14048, -2153, -711, 4249, 95, -2712
12950, -14692, -1367, -327, 4228, 875, -2707
12960, -15423, -420, -227, 4073, 814, -2694
12970, -16910, -25, 685, 2953, -1197, -3190
12980, -16578, -76, 571, 3189, -1435, -2971
12990, -15989, -106, 53, 3816, -957, -2663
13000, -14774, -772, -1058, 4347, -156, -2462
13010, -14227, -1184, -1381, 4510, 1004, -2306
13020, -13978, -1561, -1408, 4128, 899, -2259
13030, -14004, -1643, -1279, 3515, 547, -2176
13040, -14679, -1545, 189, 2418, -733, -1809
13050, -14984, -952, 977, 2188, -874, -1195
13060, -15175, -127, 1729, 2006, -776, -605
13070, -15907, 847, 2661, 2007, -1058, 223
13080, -15943, 914, 2915, 2128, -1378, 700
13090, -15848, 575, 2971, 2221, -1467, 1114
13100, -15326, -977, 2308, 2222, -1037, 1463
13110, -15304, -1810, 1754, 2080, -684, 1338
13120, -15342, -2400, 1310, 1719, -454, 1106
13130, -15879, -2494, 1458, 410, -416, 366
13140, -16585, -2047, 1751, -430, -455, -142
13150, -17503, -1252, 1966, -1130, -521, -590
13160, -19534, -149, 863, -1089, -474, -1085
13170, -20224, -476, 216, -962, -378, -1114
13180, -20906, -1277, 323, -1220, -127, -1208
13190, -21654, -2760, 2038, -1915, 513, -1430
13200, -21050, -2706, 3210, -2190, 543, -1206
13210, -20091, -2151, 4473, -2560, 151, -889
13220, -19032, -701, 6003, -3120, -771, -819
13230, -19822, -314, 5044, -4162, -2925, -1873
13240, -20810, -772, 3621, -4762, -4009, -2907
13250, -21373, -2630, 2117, -4687, -4536, -3947
13260, -19012, -8203, -2157, 173, -826, -3468
13270, -17379, -7716, -5793, 3626, 2779, -1706
13280, -15400, -5488, -8676, 5352, 4168, 166
13290, -14016, -2034, -9312, 3222, 365, 1238
13300, -14990, -765, -7566, 970, -1447, 874
13310, -16436, 1510, -2644, -1088, -2073, 503
13320, -16388, 1662, -1625, -685, 887, 420
13330, -15591, 923, -2357, 1266, 2929, 691
13340, -14650, -170, -3892, 2533, 3662, 869
13350, -15041, -2218, -5855, 1986, 2275, 553
13360, -15880, -2447, -6322, 1341, 1145, 686
13370, -16579, -1574, -6088, 780, 9, 1123
13380, -17518, 1367, -3987, -183, -798, 1838
13390, -17166, 2030, -2730, -457, -819, 2209
13400, -16382, 1979, -1942, -390, -960, 2478
13410, -14706, 1195, -1709, -64, -1285, 2419
13420, -14351, 780, -1920, -208, -866, 1963
13430, -14314, 296, -2328, -583, 171, 1361
13440, -14867, -1020, -3124, -1551, 2090, 394
13450, -14924, -1458, -3184, -1867, 2263, 165
13460, -14830, -1544, -3004, -2047, 2203, 89
13470, -14744, -1377, -2722, -2169, 2047, 117
13480, -15029, -505, -1486, -2330, 1071, 420
13490, -15116, 207, -843, -2089, 296, 814
13500, -15016, 989, -458, -1568, -332, 1201
13510, -15197, 1974, -532, -406, 237, 1135
13520, -15363, 2093, -1070, -143, 1250, 959
13530, -15418, 2014, -1796, -264, 2024, 775
13540, -14305, 1281, -1967, -1247, 668, 474
13550, -13904, 842, -1570, -1699, -500, 154
13560, -13843, 532, -1364, -1871, -675, -174
13570, -13836, 339, -1428, -1740, -229, -499
13580, -13901, 248, -1393, -1651, -232, -601
13590, -13896, 111, -1069, -1568, -399, -675
13600, -13885, 2, -659, -1338, -566, -746
13610, -13998, 4, -34, -604, -520, -896
13620, -14202, 150, 104, -251, -332, -945
13630, -14368, 148, 203, 66, -163, -1008
13640, -14968, 411, 339, 481, -342, -1171
13650, -15544, 774, 244, 565, -449, -1189
13660, -16198, 1090, -27, 704, -395, -1201
13670, -17239, 599, -967, 1247, -86, -1109
13680, -17557, -228, -1233, 1584, -187, -1027
13690, -17800, -915, -1331, 1940, -558, -963
13700, -18302, -1303, -1391, 2234, -773, -1007
13710, -19736, -151, -1349, 2430, -387, -957
13720, -20121, 1297, -1409, 2360, -130, -686
13730, -20261, 2780, -1477, 2232, -312, -334
13740, -20713, 4576, -1595, 1818, -1115, 157
13750, -20701, 4134, -1295, 1592, -1293, 273
13760, -20243, 2824, -558, 1453, -1523, 402
13770, -18704, 864, 1737, 1471, -1798, 742
13780, -17767, 1547, 1775, 4044, -772, 1594
13790, -18941, 1478, -974, 5220, -1982, 1787
13800, -20992, -663, -5833, 5756, -4481, 2533
13810, -20852, -1776, -7518, 5309, -5336, 2613
13820, -19754, -2120, -8579, 4697, -6009, 2261
13830, -16341, -1420, -9752, 2735, -4650, 1365
13840, -14607, -1803, -9759, 1436, -3131, 985
13850, -13485, -3010, -9133, 349, -1991, 462
13860, -13245, -6359, -5288, -109, -1376, 31
13870, -15480, -6754, -4050, 2842, -2756, -287
13880, -16883, -6461, -3241, 4861, -2746, -418
13890, -17694, -5054, -2950, 6021, -1325, -485
13900, -18033, -1175, -3287, 4491, 3156, -767
13910, -17554, 137, -2540, 2736, 3037, -836
13920, -16881, 628, -1175, 1529, 905, -895
13930, -15935, 446, 623, 1677, -3128, -881
13940, -15446, -54, 95, 2192, -3395, -823
13950, -15420, -577, -1118, 2255, -2705, -923
13960, -15287, -564, -3041, 821, -1520, -1345
13970, -14968, -459, -3505, 89, -986, -1474
13980, -14705, -305, -3755, -392, -780, -1520
13990, -14359, -127, -3639, -783, -969, -1435
14000, -13951, -333, -2613, -1586, -1321, -1406
14010, -14132, -962, -1315, -2719, -1352, -1555
14020, -14307, -1424, -608, -3386, -1683, -1761
14030, -14815, -2042, 991, -4455, -2839, -2371
14040, -14880, -2313, 1692, -4401, -3275, -2562
14050, -14518, -2511, 1925, -3576, -3048, -2434
14060, -13844, -2498, 693, -848, -1228, -2014
14070, -13881, -2302, -152, -117, -246, -1952
14080, -13910, -2055, -691, 4, 301, -1877
14090, -13951, -1163, -622, -267, 308, -1784
14100, -14144, -509, -133, -1222, -479, -1649
14110, -14389, 7, 463, -1494, -665, -1517
14120, -14497, 322, 1072, -1491, -718, -1117
14130, -14064, 736, 1166, -784, -876, 67
14140, -13927, 534, 939, -612, -1123, 465
14150, -14077, 247, 643, -549, -1330, 739
14160, -14492, -141, 509, -664, -1265, 1269
14170, -14736, -504, 722, -909, -913, 1353
14180, -15117, -957, 1216, -1341, -358, 1288
14190, -15588, -1462, 2379, -2441, 1507, 1199
14200, -15884, -1510, 2764, -2911, 2458, 1051
14210, -16484, -1527, 2861, -3209, 2670, 689
14220, -17358, -1343, 2713, -3166, 2173, 270
14230, -18908, -788, 563, -1668, 89, 32
14240, -19363, -1551, -878, -676, -832, 74
14250, -20312, -3510, -2750, -164, 232, -138
14260, -20631, -3769, -1233, -1117, 1129, -190
14270, -20710, -2833, 1124, -2112, 2103, -260
14280, -20929, 774, 5013, -3594, 3137, -673
14290, -20847, 2185, 6778, -4412, 1772, -975
14300, -20638, 2748, 8079, -4989, -415, -1231
14310, -20468, 2692, 7948, -5046, -2713, -1462
14320, -20712, 1835, 5615, -5723, -6089, -1888
14330, -20950, 1046, 3843, -6244, -6776, -1840
14340, -21108, -279, 1637, -6290, -7267, -1681
14350, -19232, -5404, -2697, -3256, -8111, -1358
14360, -18820, -8035, -5378, -41, -6452, -1555
14370, -18424, -8691, -8638, 2644, -3111, -1436
14380, -16558, -5930, -11076, 2290, 2950, -1011
14390, -16471, -4056, -9538, 714, 3902, -1263
14400, -15932, -1181, -7086, -475, 2539, -1052
14410, -15055, 1889, -1373, -1310, 370, -463
14420, -13103, 3418, 705, -1306, -918, 568
14430, -12447, 1877, 766, 576, 143, 828
14440, -13548, -135, -1851, 3123, 1265, 609
14450, -17511, -2015, -6695, 4388, 844, 63
14460, -19334, -1161, -6779, 2915, 174, 55
14470, -19540, -42, -5152, 1256, -89, 514
14480, -16128, 418, -2514, 857, 215, 1476
14490, -14766, 313, -2178, 1242, 106, 1694
14500, -13992, 363, -2056, 1280, -139, 1760
14510, -13677, 48, -1858, 727, -15, 1445
14520, -14050, -502, -1991, 583, 603, 1261
14530, -14478, -1121, -2277, 678, 1139, 1140
14540, -15013, -1628, -2638, 1002, 1091, 882
14550, -14970, -1528, -2443, 911, 915, 714
14560, -15006, -1301, -2089, 760, 897, 519
14570, -15220, -659, -1231, 782, 839, 360
14580, -15321, -232, -972, 1121, 756, 442
14590, -15383, 201, -884, 1561, 801, 592
14600, -15456, 621, -931, 1945, 880, 745
14610, -15278, 954, -1136, 2421, 613, 910
14620, -15253, 798, -1254, 2436, 542, 807
14630, -15092, 577, -1312, 2340, 480, 716
14640, -14783, 383, -1389, 2186, 461, 645
14650, -14378, 206, -1201, 2147, 204, 387
14660, -14317, 241, -1239, 2260, 177, 256
14670, -14324, 376, -1158, 2283, 390, 135
14680, -14616, 532, -650, 2316, 318, -14
14690, -14740, 486, -192, 2431, 40, -74
14700, -14697, 891, 945, 3716, -411, -265
14710, -14906, 958, 491, 3831, -265, -408
14720, -15073, 1038, 51, 3828, -255, -513
14730, -15317, 1121, -329, 3673, -197, -681
14740, -15420, 1085, -297, 3628, 38, -695
14750, -15559, 1042, -263, 3722, 304, -710
14760, -16073, 665, -283, 4041, 769, -616
14770, -16609, 379, -423, 4195, 918, -529
14780, -17149, 120, -720, 4347, 909, -363
14790, -17541, -155, -1069, 4492, 778, 11
14800, -17489, 319, -892, 4457, 940, 90
14810, -17765, 1303, -856, 4431, 1191, 100
14820, -18405, 2406, -982, 4453, 1248, 175
14830, -20049, 4043, -1231, 4367, 643, 528
14840, -20491, 4071, -804, 4157, 577, 696
14850, -20173, 3473, 205, 3845, 642, 836
14860, -18796, 2553, 2252, 3410, 752, 1002
14870, -18566, 2421, 2821, 3488, 372, 1052
14880, -18808, 2394, 2511, 3920, -357, 1170
14890, -19493, 2377, 932, 4717, -1036, 1497
14900, -22761, 894, -3659, 6062, -2153, 2526
14910, -23669, -872, -5234, 6031, -2738, 3038
14920, -22633, -2831, -5623, 5425, -3599, 3453
14930, -18020, -3484, -4400, 3982, -3363, 2820
14940, -16118, -2923, -4321, 4055, -2557, 2326
14950, -13984, -2902, -5345, 5073, -2956, 1438
14960, -13487, -3449, -5873, 5523, -3522, 1038
14970, -13111, -4400, -6285, 5860, -3587, 706
14980, -12639, -5705, -6382, 6052, -2808, 439
14990, -13941, -8305, -6052, 6383, 272, -429
15000, -15862, -7533, -5831, 6392, 1275, -670
15010, -17101, -5555, -5155, 6191, 1279, -820
15020, -18080, -2045, -2558, 5836, 1547, -1580
15030, -17838, -1011, -1619, 5906, 2343, -1835
15040, -17220, -439, -1140, 5894, 2957, -1807
15050, -16039, -732, -752, 5468, 1302, -1730
15060, -15453, -1129, -1298, 5500, -262, -1784
15070, -14826, -1237, -2242, 5533, -997, -1807
15080, -14323, -1400, -3888, 4970, 170, -1935
15090, -14513, -1333, -4404, 4655, 579, -2088
15100, -14707, -1080, -4511, 4318, 643, -2127
15110, -14821, -835, -4140, 3963, 514, -2082
15120, -15362, -1008, -2452, 3264, 347, -2165
15130, -15708, -1204, -1338, 2732, 105, -2252
15140, -15911, -1300, -283, 1995, -294, -2331
15150, -15803, -2011, 2141, 1090, -1219, -2539
15160, -15171, -2244, 2472, 2091, -1122, -2167
15170, -14254, -2602, 1146, 4749, -80, -1627
15180, -14212, -2736, 328, 5393, 313, -1509
15190, -14220, -2732, -260, 5629, 559, -1303
15200, -14283, -2513, -581, 5586, 465, -1166
15210, -14745, -1296, -368, 5210, -507, -982
15220, -15027, -704, -65, 4983, -732, -886
15230, -15116, -274, 65, 4904, -699, -695
15240, -14752, -153, -633, 5135, 11, -90
15250, -14569, -245, -961, 4956, 120, 235
15260, -14545, -507, -974, 4665, -184, 516
15270, -14776, -782, -782, 4489, -675, 792
15280, -15426, -1138, -213, 4695, -1238, 1434
15290, -15717, -1296, 156, 4771, -1028, 1659
15300, -16002, -1583, 572, 4605, -490, 1785
15310, -15901, -1677, 1746, 3955, 453, 2078
15320, -15734, -1378, 2202, 3890, 877, 2185
15330, -15781, -1137, 2104, 4253, 1248, 2176
15340, -16182, -1342, 1233, 4941, 1245, 2099
15350, -17206, -2832, -1298, 5755, -35, 1963
15360, -17687, -2999, -2057, 5521, -113, 1714
15370, -18305, -2379, -2414, 5027, 526, 1486
15380, -18783, -338, -684, 3424, 1021, 1550
15390, -19118, 332, 891, 2554, 835, 1492
15400, -19280, 999, 2121, 1885, 775, 1524
15410, -19382, 1443, 3622, 807, -220, 1526
15420, -19264, 1120, 3945, 248, -1252, 1483
15430, -19164, 505, 3534, -182, -2393, 1403
15440, -20984, -2426, 783, -815, -4865, 661
15450, -21845, -4709, -433, -996, -5947, 36
15460, -22214, -7043, -1560, -498, -6024, -537
15470, -21905, -8791, -3220, 956, -4778, -727
15480, -17198, -8734, -6648, 4352, -734, 150
15490, -13918, -7659, -7285, 5006, 808, 606
15500, -11259, -6198, -6970, 4741, 1576, 882
15510, -9925, -1910, -4629, 3154, 706, 702
15520, -11141, 803, -3253, 2936, -516, 401
15530, -14043, 2857, -2180, 3489, -1258, -108
15540, -17979, 2578, -2138, 4543, -1064, -425
15550, -22226, -2235, -3298, 7052, 408, 604
15560, -22608, -3795, -4249, 7774, 694, 1278
15570, -21827, -4408, -4213, 7894, 252, 2024
15580, -18653, -4125, -2307, 7934, -1157, 2731
15590, -17111, -3868, -1391, 8169, -1496, 2837
15600, -15650, -3721, -673, 8562, -1554, 2861
15610, -14582, -2785, -1852, 11498, -1983, 1297
15620, -16347, -2074, -2993, 12060, -1372, 1193
15630, -16985, -1591, -3374, 13221, -1248, 1271
15640, -17212, -1040, -3627, 13639, -1306, 1416
15650, -16901, -656, -3569, 13777, -1481, 1647
15660, -15940, -936, -2825, 13684, -2360, 1799
15670, -15654, -1330, -2465, 13725, -2850, 1753
15680, -15658, -1806, -2324, 13905, -3019, 1652
15690, -15678, -2246, -2644, 14570, -2785, 1466
15700, -15717, -2397, -2822, 14903, -2731, 1332
15710, -15699, -2624, -2982, 15207, -2718, 1197
15720, -15552, -2785, -3092, 15479, -2499, 1070
15730, -15030, -2620, -2975, 15788, -2046, 845
15740, -14905, -2482, -2911, 15966, -1967, 709
15750, -14914, -2295, -2924, 16148, -1759, 544
15760, -15449, -1863, -2815, 16052, -1500, 162
15770, -15782, -1590, -2630, 15835, -1366, 10
15780, -16011, -1298, -2344, 15615, -1176, -71
15790, -15979, -624, -1667, 15378, -1187, -55
15800, -15909, -215, -1458, 15327, -1269, 3
15810, -15660, 361, -1363, 15264, -1376, 68
15820, -15425, 1013, -1553, 15031, -1306, 58
15830, -14913, 2180, -2157, 13689, -696, -48
15840, -14817, 2610, -2295, 12621, -238, -240
15850, -14735, 2952, -1515, 10806, 513, -528
15860, -14794, 2727, -810, 10400, 614, -622
15870, -14976, 2413, -179, 10173, 797, -635
15880, -15231, 1796, 728, 9532, 1758, -688
15890, -15235, 1542, 1161, 8889, 2352, -697
15900, -15165, 1328, 1668, 8162, 2658, -749
15910, -15081, 1221, 2243, 7433, 2668, -813
15920, -15425, 1457, 3129, 6654, 2512, -1088
15930, -15816, 1692, 3096, 6668, 2372, -1142
15940, -16098, 1722, 2763, 6829, 2025, -1103
15950, -15920, 1084, 2050, 6952, 1404, -826
15960, -15714, 640, 1954, 6813, 1363, -719
15970, -15742, 242, 1954, 6657, 1458, -707
15980, -16494, 74, 1898, 6558, 1585, -787
15990, -17090, 227, 1837, 6489, 1789, -910
16000, -17628, 410, 1637, 6571, 1672, -892
16010, -17801, 630, 1371, 6564, 1487, -784
16020, -17579, 720, 1196, 6082, 989, -637
16030, -17411, 607, 1440, 5771, 709, -578
16040, -17340, 371, 1707, 5596, 541, -507
16050, -17199, -137, 2219, 5795, 46, -323
16060, -18080, -484, 1951, 6098, 167, -244
16070, -19891, -852, 829, 6726, 178, -109
16080, -25027, -2779, -3436, 8538, -1008, 571
16090, -26257, -4194, -5490, 8993, -2322, 1392
16100, -23455, -4961, -6605, 8733, -3121, 2206
16110, -15366, -4239, -7027, 6757, -1133, 1087
16120, -12892, -3592, -7025, 6186, -88, 337
16130, -11499, -2894, -7242, 6236, 810, -260
16140, -11828, -3099, -8258, 7235, 1919, -1397
16150, -12922, -3877, -7460, 7318, 1600, -1637
16160, -15392, -4368, -5666, 7338, 372, -2023
16170, -19596, -2988, -1080, 7740, -1028, -1930
16180, -20423, -2436, 1056, 7630, 1386, -1779
16190, -20180, -2259, 2081, 7615, 4117, -1511
16200, -19131, -2302, 2221, 7696, 4008, -1307
16210, -17496, -2784, 1212, 7337, -2943, -1534
16220, -16532, -2952, 53, 7442, -5271, -1438
16230, -15507, -3022, -1441, 7889, -5514, -1212
16240, -14104, -2173, -4556, 8400, -3232, -845
16250, -13667, -1491, -5710, 8073, -1985, -735
16260, -13481, -1049, -6284, 7503, -1108, -723
16270, -13623, -1100, -6257, 6826, -701, -809
16280, -14407, -1543, -4146, 5461, -381, -1098
16290, -15007, -1604, -2986, 4822, 50, -1176
16300, -16508, -1553, -760, 2999, 784, -1552
16310, -17067, -1316, 415, 1890, 451, -1785
16320, -17411, -1016, 1487, 1086, -355, -1940
16330, -17408, -542, 2349, 910, -2882, -2050
16340, -16911, -619, 1869, 1350, -3965, -2054
16350, -16220, -565, 1122, 1914, -3864, -1960
16360, -14690, -544, -206, 2631, -1877, -1601
16370, -14281, -630, -644, 2693, -803, -1435
16380, -14010, -705, -989, 2588, -316, -1361
16390, -13983, -981, -987, 1862, -797, -1467
16400, -14002, -1059, -723, 1321, -886, -1337
16410, -13942, -1100, -461, 826, -755, -1088
16420, -13072, -1263, 218, 495, -760, -525
16430, -12746, -1641, 719, 250, -1420, -462
16440, -12372, -1836, 1047, 452, -1374, -93
16450, -12198, -1991, 1240, 704, -1106, 225
16460, -12929, -2165, 1279, 1364, -549, 643
16470, -13637, -2028, 1308, 1660, -511, 977
16480, -14263, -1857, 1508, 1912, -634, 1441
16490, -14695, -1641, 1792, 2141, -697, 1941
16500, -15417, -2061, 2576, 2310, -32, 2376
16510, -16551, -1871, 2779, 2129, 1812, 2044
16520, -17986, -1437, 873, 2689, 381, 1621
16530, -19205, -1312, -43, 2647, -229, 1240
16540, -21051, -1040, -733, 2356, -148, 671
16550, -23025, -760, -369, 351, 645, 155
16560, -22136, -645, 1194, -1176, 213, 41
16570, -21355, -126, 2749, -2546, -527, -313
16580, -19804, 2131, 4851, -3989, -2445, -424
16590, -19341, 3077, 4882, -4039, -3381, -297
16600, -19536, 3292, 4642, -4207, -4096, -268
16610, -20197, 2675, 3959, -4569, -4424, -331
16620, -21956, -958, 1922, -5457, -4339, -933
16630, -22553, -3479, 764, -5447, -4163, -1561
16640, -22343, -6336, -465, -4377, -3459, -1962
16650, -18417, -8902, -3722, 479, 438, -469
16660, -15609, -7713, -5536, 2544, 2402, 609
16670, -13729, -6613, -6514, 3184, 3540, 1031
16680, -12633, -5688, -6778, 3004, 3850, 1173
16690, -11810, -2576, -6175, 2693, 2887, 1464
16700, -11965, -1503, -5731, 2631, 1729, 1288
16710, -12520, -1477, -5538, 2470, 814, 849
16720, -15545, -3183, -6141, 1317, 154, -269
16730, -17520, -3431, -5861, 158, -750, -742
16740, -19626, -2680, -4448, -1206, -1838, -1129
16750, -21881, -566, 352, -1672, -1194, -614
16760, -20059, 85, 1630, 35, -200, 979
16770, -17150, 13, 2015, 2208, -692, 2500
16780, -13681, -1059, 332, 5586, -2605, 3017
16790, -13441, -1537, -914, 5953, -2249, 2608
16800, -13360, -1830, -1840, 5471, -1439, 2276
16810, -13294, -1535, -2558, 3815, -556, 1541
16820, -13586, -1249, -2576, 3240, -222, 1154
16830, -14368, -890, -2303, 2816, 892, 901
16840, -14780, -921, -2021, 2804, 1197, 928
16850, -15866, -765, -1425, 2736, 1121, 980
16860, -16235, -564, -1120, 2513, 901, 902
16870, -16613, -357, -753, 2138, 681, 766
16880, -16603, 308, 65, 1763, 412, 706
16890, -16337, 575, 412, 1303, -284, 713
16900, -15960, 625, 594, 1303, -543, 791
16910, -15525, 427, 785, 1460, -820, 803
16920, -14886, 283, 538, 2013, -1487, 784
16930, -14603, 286, 42, 2073, -1290, 750
16940, -14385, 219, -253, 1903, -1304, 647
16950, -14506, -177, -587, 1657, -1585, 254
16960, -14416, -83, -797, 1564, -1066, 131
16970, -14102, 78, -902, 1545, -572, 96
16980, -13956, -243, -455, 1460, -147, -210
16990, -14066, -586, -70, 1488, -13, -343
17000, -14098, -676, 219, 1601, 340, -455
17010, -14443, -471, 603, 1825, 1279, -646
17020, -14870, -126, 790, 1969, 1647, -740
17030, -15610, 381, 785, 2191, 2038, -811
17040, -17073, 1743, -208, 2778, 2029, -666
17050, -17475, 2213, -885, 2825, 1392, -497
17060, -17757, 2034, -1431, 2532, 755, -335
17070, -17303, -495, -990, 2063, 433, -74
17080, -17373, -1532, -60, 1563, 870, 129
17090, -17575, -1550, 732, 1903, 1571, 86
17100, -18335, -605, 984, 2416, 2370, -29
17110, -20389, 1627, 198, 3292, 2046, 101
17120, -20907, 2063, -139, 3347, 1212, 373
17130, -20563, 1710, 105, 3162, 292, 607
17140, -19404, 839, 668, 2986, -370, 778
17150, -17464, -94, 2406, 3008, -686, 846
17160, -17683, -77, 2736, 3464, -531, 823
17170, -18576, 398, 2013, 4322, -659, 940
17180, -22574, 256, -1927, 6096, -1571, 1631
17190, -23824, -607, -3884, 6350, -2254, 2208
17200, -23461, -2186, -4986, 6014, -3615, 2627
17210, -21021, -3465, -4707, 5241, -5184, 2723
17220, -15845, -3475, -3325, 4624, -5225, 1764
17230, -14463, -2435, -4100, 5164, -4969, 1226
17240, -13646, -1135, -5878, 5065, -5158, 339
17250, -13658, -1753, -6284, 4687, -4994, -6
17260, -14011, -2972, -6373, 4446, -3934, -267
17270, -15808, -4658, -6335, 4752, -729, -510
17280, -16838, -4209, -5598, 4866, 174, -561
17290, -17195, -3260, -4072, 4763, 329, -504
17300, -17057, -2199, -2443, 4658, 454, -548
17310, -16160, -561, -31, 4012, 1419, -735
17320, -15976, -123, 652, 3584, 1182, -770
17330, -15890, -75, 990, 3332, 151, -716
17340, -15806, -368, -286, 3794, -1759, -546
17350, -15327, -574, -1380, 3876, -2145, -408
17360, -15181, -657, -2090, 3516, -2057, -480
17370, -15182, -686, -2619, 3014, -1883, -621
17380, -15203, -861, -3373, 2249, -1060, -915
17390, -14917, -1120, -3478, 2063, -686, -1010
17400, -14355, -1432, -3228, 1815, -761, -1080
17410, -13453, -2002, -1771, 825, -1307, -1335
17420, -13317, -2155, -788, 392, -1317, -1471
17430, -13447, -2186, 25, 227, -945, -1590
17440, -16124, -716, 957, 726, -558, -2197
17450, -16155, -731, 865, 572, -1002, -2217
17460, -15897, -546, 126, 650, -711, -2088
17470, -15489, -540, -353, 935, 487, -1868
17480, -15299, -477, -664, 874, 649, -1801
17490, -15186, -477, -818, 681, 384, -1714
17500, -15016, 158, -1081, 167, -276, -1125
17510, -14985, 685, -777, -447, -838, -855
17520, -15238, 1000, -203, -1126, -1402, -655
17530, -15440, 1014, 701, -2028, -2168, -60
17540, -15283, 802, 908, -2211, -2354, 296
17550, -15219, 510, 1126, -2323, -2306, 523
17560, -15295, 138, 1324, -2323, -1990, 673
17570, -15409, -826, 1525, -2402, -556, 628
17580, -15681, -1071, 1720, -2912, 294, 440
17590, -15962, -848, 2278, -3795, 929, 270
17600, -16442, -365, 3082, -4756, 1246, 25
17610, -17528, 38, 3201, -4701, 454, -291
17620, -18116, -440, 1672, -3513, -608, -381
17630, -18491, -1008, -94, -2421, -1160, -386
17640, -18586, -3104, -2525, -2114, 363, -584
17650, -18837, -4169, -2073, -2991, 1285, -918
17660, -18940, -4289, -432, -4067, 1536, -1204
17670, -18148, -695, 4091, -6001, 1331, -1415
17680, -17899, 1050, 5995, -6588, 588, -1441
17690, -18651, 1665, 5772, -6010, -2086, -1203
17700, -19487, 896, 3576, -5492, -3452, -1170
17710, -20795, -427, 1239, -5672, -3941, -1548
17720, -22211, -1747, -662, -6351, -4082, -2498
17730, -23095, -2100, -2481, -6832, -3187, -3756
17740, -21724, -903, -3384, -5900, -1612, -3293
17750, -19113, 160, -4448, -4376, 82, -2283
17760, -15088, -909, -6189, -2284, 1256, -763
17770, -14416, -1930, -5953, -2448, 211, -525
17780, -14221, -2133, -5574, -2769, -653, -304
17790, -13537, -1372, -5645, -3198, 286, -304
17800, -13023, -917, -5973, -3719, 1337, -578
17810, -12771, -147, -6002, -4829, 1781, -943
17820, -14169, 1309, -5038, -7197, 1595, -1648
17830, -15574, 1677, -4936, -7301, 2014, -1658
17840, -16989, 1957, -5068, -6706, 2447, -1342
17850, -17864, 2207, -5033, -5929, 2666, -750
17860, -16988, 1330, -4705, -4471, 3359, 581
17870, -15979, 560, -4639, -4043, 3401, 989
17880, -15003, 57, -4512, -4018, 2926, 1155
17890, -13843, -626, -4195, -4887, 2116, 699
17900, -13648, -903, -4060, -5697, 2197, 175
17910, -13785, -1104, -3827, -6513, 2432, -453
17920, -14696, -777, -3469, -7361, 2956, -1384
17930, -14979, -326, -3423, -7342, 3031, -1505
17940, -15270, 179, -3500, -7185, 3136, -1597
17950, -15886, 1042, -4067, -7078, 3599, -1697
17960, -16064, 1292, -4245, -7300, 3494, -1679
17970, -16150, 1370, -4244, -7598, 3178, -1652
17980, -16103, 1188, -4076, -7802, 2762, -1626
17990, -15860, 719, -3915, -7807, 2130, -1680
18000, -15585, 664, -3781, -7905, 1773, -1768
18010, -15393, 764, -3566, -8163, 1424, -1932
18020, -15260, 1274, -3260, -8600, 1198, -2341
18030, -15229, 1508, -3343, -8692, 1078, -2466
18040, -15290, 1531, -3479, -8783, 866, -2625
18050, -15287, 1406, -3673, -8896, 666, -2791
18060, -15279, 759, -4068, -9105, 307, -3110
18070, -15140, 338, -4147, -9160, 50, -3235
18080, -15003, -36, -4068, -9201, -187, -3327
18090, -15158, -247, -3825, -8998, -501, -3519
18100, -15318, -143, -3575, -8876, -618, -3594
18110, -15518, 5, -3243, -8764, -698, -3666
18120, -15955, 195, -2607, -8426, -827, -3671
18130, -16253, 274, -2399, -8218, -1002, -3664
18140, -16501, 427, -2214, -8003, -1282, -3612
18150, -16916, 542, -2218, -7387, -1796, -3411
18160, -16998, 465, -2283, -7060, -1987, -3313
18170, -17001, 447, -2357, -6758, -2187, -3208
18180, -17060, 704, -2469, -6158, -2658, -3007
18190, -17197, 810, -2536, -5824, -2958, -2883
18200, -17238, 937, -2772, -5508, -3217, -2693
18210, -17101, 820, -3245, -5380, -3625, -2419
18220, -16888, 616, -3334, -5529, -3787, -2371
18230, -16711, 403, -3164, -5709, -3914, -2391
18240, -16602, 271, -2943, -5774, -4037, -2386
18250, -16707, 484, -2582, -5481, -3931, -2298
18260, -16733, 718, -2361, -5237, -3841, -2179
18270, -16775, 1009, -2291, -4925, -3792, -2060
18280, -16700, 1936, -2294, -4475, -3572, -1749
18290, -16494, 2432, -2461, -4365, -3515, -1545
18300, -16368, 2855, -2729, -4395, -3463, -1373
18310, -16948, 2926, -3737, -4829, -3379, -1056
18320, -17781, 2893, -4439, -5200, -3306, -893
18330, -17802, 1706, -4828, -9266, -2715, -1336
18340, -16459, 1066, -4239, -9730, -3369, -1546
18350, -14788, 344, -3699, -10265, -3781, -1598
18360, -12821, -1627, -2688, -10830, -3610, -1948
18370, -12824, -2467, -2433, -10508, -3927, -2148
18380, -13474, -3199, -2461, -9994, -4545, -2322
18390, -14479, -3658, -2614, -9679, -4738, -2486
18400, -17928, -2976, -3042, -9702, -2903, -2956
18410, -19674, -1784, -3466, -9835, -1650, -3024
18420, -20465, -450, -3985, -9987, -527, -2779
18430, -20374, 436, -4935, -10339, 199, -2528
18440, -17732, 1241, -4162, -11719, -254, -2176
18450, -15932, 1159, -3217, -11915, -1289, -2024
18460, -14661, 1015, -2697, -11703, -2084, -1911
18470, -14176, 514, -2697, -11738, -2879, -1870
18480, -14814, 318, -3050, -12134, -3255, -2030
18490, -15447, 252, -3380, -12662, -3904, -2212
18500, -15728, -25, -3396, -14052, -4654, -2293
18510, -15654, -193, -3196, -14730, -4498, -2365
18520, -15600, -457, -2909, -15323, -4256, -2457
18530, -15406, -899, -2191, -16064, -4405, -2559
18540, -15282, -1110, -1843, -16255, -4665, -2556
18550, -15446, -1240, -1267, -16152, -4811, -2460
18560, -15684, -1071, -1216, -15808, -4720, -2336
18570, -15931, -832, -1317, -15445, -4532, -2194
18580, -16252, -701, -1398, -15222, -4318, -2133
18590, -16719, -607, -1581, -14993, -3788, -2102
18600, -16723, -654, -1559, -14922, -3392, -2019
18610, -16619, -547, -1623, -14765, -3034, -1943
18620, -16176, -392, -1914, -14417, -2492, -1817
18630, -15925, -336, -2075, -14414, -2225, -1808
18640, -15685, -463, -2290, -14495, -1956, -1840
18650, -15236, -726, -2628, -14442, -1464, -1662
18660, -14973, -851, -2779, -14241, -1181, -1564
18670, -14771, -1135, -2802, -13967, -879, -1508
18680, -14057, -2395, -2929, -13151, -330, -1365
18690, -14140, -3497, -2784, -12928, -127, -1664
18700, -14402, -4412, -2382, -12740, 149, -1730
18710, -14092, -4124, -1477, -12241, 630, -1466
18720, -14197, -3878, -1068, -11882, 533, -1534
18730, -14304, -3722, -721, -11458, 135, -1490
18740, -14517, -3591, -318, -11179, -411, -1412
18750, -15442, -3409, 968, -10961, -1456, -1403
18760, -16115, -3283, 1689, -10619, -1720, -1431
18770, -17198, -2428, 2632, -9306, -1423, -1078
18780, -17179, -1673, 2821, -8592, -1146, -703
18790, -16897, -936, 2704, -7902, -919, -400
18800, -16648, -484, 1713, -7303, -707, -276
18810, -16829, -427, 1071, -6535, -241, -379
18820, -16993, -507, 436, -6319, -230, -343
18830, -17125, -568, -33, -6208, -485, -301
18840, -17644, -699, 208, -6450, -1517, -368
18850, -17992, -1060, 692, -6503, -1702, -451
18860, -18189, -1275, 981, -6423, -1713, -438
18870, -18053, -756, 1511, -6583, -2201, -349
18880, -18086, -341, 1796, -6834, -2516, -417
18890, -18142, 112, 2122, -7190, -2922, -478
18900, -18161, 584, 2460, -7549, -3400, -478
18910, -18162, 1181, 2966, -8511, -4377, -494
18920, -18145, 1269, 3261, -9108, -4889, -519
18930, -17946, 1165, 3516, -9496, -5336, -472
18940, -17547, -416, 3319, -8896, -5117, -428
18950, -18004, -1952, 2545, -7985, -4401, -904
18960, -19245, -3524, 1342, -7031, -3266, -1800
18970, -22868, -5392, -1092, -5771, -797, -3779
18980, -22877, -4180, -2285, -4879, -53, -3259
18990, -19744, -1520, -3213, -3775, 0, -1428
19000, -12644, 1284, -4598, -2551, 79, 1072
19010, -11478, 1388, -5878, -2512, 536, 1002
19020, -11597, 1230, -7293, -2913, 460, 784
19030, -13829, 1548, -8279, -5589, -601, -146
19040, -14475, 1540, -7589, -7647, -444, -509
19050, -14559, 1502, -6728, -9525, -135, -727
19060, -15098, 1551, -5892, -10999, 182, -1157
19070, -18679, 1304, -4166, -11747, 1804, -1837
19080, -19637, 1127, -4558, -10153, 3426, -939
19090, -18266, 834, -5262, -8527, 4466, 452
19100, -14807, 45, -5216, -8819, 3172, 1330
19110, -13817, -268, -4530, -10080, 1948, 1145
19120, -13498, -436, -4035, -11181, 1317, 738
19130, -13823, -322, -3612, -11953, 1366, 265
19140, -15248, -209, -3575, -12837, 2227, -404
19150, -16116, -4, -3568, -13009, 2830, -610
19160, -16737, 148, -3719, -12930, 3651, -704
19170, -16777, 87, -4173, -12617, 5001, -568
19180, -16362, 42, -4223, -12685, 5225, -455
19190, -15843, 53, -4037, -12880, 4939, -410
19200, -15682, 1130, -4108, -12642, 3415, -843
19210, -15933, 1007, -4275, -12704, 3158, -974
19220, -15915, 505, -3760, -12765, 2485, -1061
19230, -15738, 370, -3321, -12595, 1049, -1141
19240, -15504, 349, -2932, -12362, 754, -1139
19250, -15165, 376, -2682, -12011, 700, -1098
19260, -14866, 293, -2601, -11108, 812, -1167
19270, -14849, 192, -2641, -10621, 797, -1197
19280, -14908, 78, -2714, -10139, 662, -1238
19290, -14821, -34, -2537, -9376, 269, -1398
19300, -14657, 30, -2121, -9086, 39, -1527
19310, -14523, 81, -1641, -8749, -248, -1731
19320, -14530, 153, -1170, -8330, -509, -1983
19330, -14606, 242, -359, -7344, -999, -2334
19340, -14822, 407, -163, -6873, -1187, -2455
19350, -15016, 718, -194, -6479, -1326, -2489
19360, -15516, 968, -533, -5984, -1383, -2557
19370, -15734, 778, -759, -5615, -1619, -2577
19380, -15962, 562, -1065, -5028, -1975, -2583
19390, -16416, 373, -1851, -3856, -2217, -2513
19400, -16844, -45, -2143, -3288, -2163, -2483
19410, -17569, -665, -2470, -2578, -2335, -2519
19420, -19332, -834, -3183, -978, -2822, -2250
19430, -19604, 12, -3197, -446, -2503, -1783
19440, -19585, 856, -3139, -71, -1911, -1397
19450, -20110, 1638, -2745, 445, -2163, -1261
19460, -20365, 1953, -2334, 560, -2574, -1154
19470, -20233, 2428, -1768, 633, -2946, -919
19480, -19206, 3350, -520, 788, -3154, -244
19490, -18625, 4024, -393, 910, -2895, 53
19500, -18199, 4838, -555, 765, -2082, 335
19510, -19253, 5398, -1362, 116, -428, 604
19520, -19801, 4458, -2649, 141, -797, 694
19530, -19781, 2948, -4175, 59, -1613, 614
19540, -19701, 1554, -5483, -322, -2260, 121
19550, -19214, 543, -7769, -1581, -3197, -1035
19560, -18470, 765, -8522, -2544, -3385, -1250
19570, -17148, 932, -9048, -3668, -3139, -1183
19580, -15184, 875, -9026, -4765, -2366, -929
19590, -12436, -2387, -6081, -5360, -1686, -1090
19600, -12307, -4200, -4490, -4017, -3865, -1141
19610, -12139, -5138, -3633, -2329, -5950, -740
19620, -14873, -4404, -3146, -492, -4372, -906
19630, -17482, -1144, -4451, -722, -480, -1067
19640, -17557, 335, -5417, -1789, 142, -1105
19650, -16853, 1771, -5087, -5478, 218, -1167
19660, -16136, 1133, -3790, -6325, -684, -1182
19670, -15712, 58, -2922, -5886, -2028, -1274
19680, -15251, -626, -2621, -5194, -3531, -1262
19690, -15152, -702, -2999, -5215, -3092, -1311
19700, -15137, -816, -3543, -5729, -2766, -1467
19710, -14771, -948, -3815, -6339, -2485, -1621
19720, -14379, -1746, -3776, -6885, -2288, -1898
19730, -14025, -2244, -3642, -6918, -2478, -1939
19740, -13817, -2601, -3371, -7154, -2497, -2083
19750, -14220, -3077, -2125, -8101, -2884, -2586
19760, -14688, -3002, -1355, -8425, -3381, -2847
19770, -15526, -2742, -609, -8577, -3778, -3167
19780, -16404, -2550, 290, -8553, -4039, -3416
19790, -16168, -1989, 993, -6681, -3359, -2722
19800, -15580, -1520, 325, -5297, -2547, -2276
19810, -15158, -1168, -452, -4368, -1769, -1989
19820, -14973, -857, -1427, -4101, -1210, -1878
19830, -15018, -714, -1567, -4341, -1380, -1821
19840, -15107, -333, -1585, -4568, -1702, -1639
19850, -15149, 0, -1515, -4765, -2022, -1418
19860, -14980, 247, -1491, -5038, -2112, -915
19870, -14350, -74, -1533, -5081, -2133, -563
19880, -13295, -591, -1176, -5044, -2442, -75
19890, -13160, -646, -746, -4951, -2317, 90
19900, -13405, -684, -290, -4721, -2090, 187
19910, -13984, -855, 499, -3985, -1581, 491
19920, -14193, -1108, 924, -3688, -1131, 545
19930, -14511, -1574, 1254, -3408, -477, 462
19940, -15263, -2777, 1591, -3086, 359, 241
19950, -15528, -2961, 1846, -2991, 341, 162
19960, -15817, -2871, 2024, -2883, 363, 73
19970, -16173, -2567, 2080, -2674, 502, -19
19980, -17137, -1929, 934, -1752, 604, -187
19990, -17501, -1753, -50, -1139, 282, -175
20000, -17880, -1942, -938, -537, 52, -176
20010, -18785, -2828, -2765, 775, 814, -341
20020, -19147, -2937, -2929, 572, 1074, -419
20030, -19331, -2536, -1773, -396, 937, -544
20040, -19507, -1448, -154, -1501, 999, -698
20050, -19540, 1575, 2662, -3230, 1293, -825
20060, -19779, 2697, 3742, -4011, 735, -886
20070, -20161, 3335, 4869, -4990, -487, -1119
20080, -20259, 2866, 6233, -6474, -3549, -1375
20090, -17264, -878, 2433, -5465, -5068, -729
20100, -17348, -3430, -345, -4371, -3717, -1242
20110, -18325, -4873, -1479, -3921, -3333, -2002
20120, -19513, -5920, -2248, -3583, -2871, -2820
20130, -20380, -6101, -2745, -3022, -2041, -3198
20140, -19060, -1964, -3556, -1259, -267, -2048
20150, -18398, -111, -3302, -518, 220, -1441
20160, -17693, 875, -3065, 397, 744, -804
20170, -14612, 1310, -4593, 2695, 2214, 919
20180, -12716, 720, -5867, 3070, 2242, 1257
20190, -11686, -363, -6897, 2455, 2011, 908
20200, -12269, -2325, -8001, -151, 1664, -364
20210, -13292, -2100, -7969, -1657, 1685, -851
20220, -14730, -855, -7300, -3168, 1432, -1259
20230, -16719, 1101, -5573, -4629, 869, -1581
20240, -19948, 2781, -934, -4611, 1003, -909
20250, -19119, 2017, -204, -2487, 1882, 463
20260, -17209, 985, -898, -231, 2592, 1723
20270, -15599, 297, -2050, 1121, 2658, 2366
20280, -14011, -307, -3551, 893, 1312, 2223
20290, -13972, -461, -3847, -100, 1029, 1703
20300, -14185, -619, -3909, -1265, 1242, 1130
20310, -14962, -1166, -3767, -3017, 1969, 56
20320, -15383, -1289, -3667, -3478, 2180, -292
20330, -15561, -928, -3003, -3884, 2139, -353
20340, -15519, -604, -2406, -3994, 1899, -248
20350, -15498, -272, -1737, -4022, 1595, -117
20360, -15772, 504, -457, -3369, 998, 148
20370, -16020, 952, -194, -2974, 1018, 316
20380, -16188, 1379, -290, -2418, 1316, 493
20390, -16272, 1619, -651, -2016, 1689, 600
20400, -16061, 1574, -1425, -1899, 1613, 592
20410, -15726, 1441, -1511, -2007, 1051, 535
20420, -15295, 1255, -1547, -2057, 512, 477
20430, -14826, 817, -1960, -2048, 68, 354
20440, -14470, 437, -2120, -2110, -38, 281
20450, -14165, 318, -2006, -2262, -503, 166
20460, -13956, 145, -1671, -2358, -882, 92
20470, -13976, -44, -1002, -2038, -560, -107
20480, -14031, 24, -677, -1786, -442, -160
20490, -14017, 203, -383, -1488, -482, -182
20500, -14408, 461, 9, -1029, -404, -402
20510, -14775, 623, 45, -877, -245, -566
20520, -15147, 751, 29, -765, -124, -734
20530, -15730, 819, -173, -529, -291, -1039
20540, -15951, 799, -315, -417, -462, -1220
20550, -16318, 858, -519, -425, -618, -1392
20560, -16423, 730, -546, -338, -756, -1417
20570, -16496, 520, -623, -100, -1013, -1422
20580, -16547, 169, -737, 278, -1229, -1369
20590, -16991, -335, -1413, 1182, -1123, -1272
20600, -17558, -312, -1960, 1496, -841, -1241
20610, -18160, 17, -2323, 1604, -588, -1175
20620, -19141, 1612, -2605, 1230, -429, -849
20630, -19506, 2511, -2706, 859, -301, -585
20640, -19874, 3105, -2651, 563, -281, -372
20650, -19891, 2444, -1479, 390, -850, 35
20660, -19252, 1700, -483, 771, -1332, 196
20670, -18687, 1107, 564, 1003, -1593, 250
20680, -18415, 703, 1618, 1033, -1440, 284
20690, -18650, 808, 3217, 1096, -197, 385
20700, -19288, 1537, 2966, 1565, -30, 560
20710, -20383, 2409, 1249, 2381, -417, 877
20720, -22645, 2391, -3729, 3479, -1732, 1838
20730, -22470, 869, -5707, 3223, -2806, 2359
20740, -20917, -757, -6514, 2532, -3916, 2538
20750, -17499, -2212, -7050, 1811, -4064, 1173
20760, -15811, -2122, -7313, 1433, -3476, 541
20770, -12478, -2552, -6890, 700, -3000, 171
20780, -11429, -3525, -5862, -275, -2242, -452
20790, -11688, -4738, -5041, 237, -2162, -838
20800, -13066, -5536, -5251, 1411, -2402, -932
20810, -16289, -4272, -6513, 2522, -847, -884
20820, -17271, -2792, -6095, 1789, 287, -891
20830, -17746, -1232, -4804, 866, 766, -886
20840, -17000, 316, -1701, 383, 239, -947
20850, -16551, 415, -820, 627, -50, -942
20860, -16164, 429, -424, 712, -513, -914
20870, -15778, 237, -356, 490, -1105, -912
20880, -15551, -589, -869, -423, -2534, -1250
20890, -15769, -726, -1408, -958, -3016, -1480
20900, -15799, -758, -1988, -1477, -2902, -1557
20910, -15436, -970, -2974, -2044, -2013, -1422
20920, -15113, -1357, -3224, -2104, -1964, -1363
20930, -14781, -1737, -3194, -2177, -2249, -1365
20940, -14287, -2050, -2381, -2973, -2831, -1576
20950, -14569, -2067, -1874, -3786, -2991, -1972
20960, -15214, -1994, -924, -4899, -3238, -2572
20970, -15845, -1831, 158, -5784, -3549, -3113
20980, -15831, -1674, 1717, -4961, -3366, -3138
20990, -15776, -1627, 1492, -3642, -2166, -3040
21000, -14602, -553, -1459, -984, 1398, -1768
21010, -14524, -158, -1751, -1375, 1239, -1833
21020, -14447, -16, -1481, -2755, 288, -2078
21030, -14278, -155, -1257, -3071, -470, -1876
21040, -13792, -442, -1230, -3073, -1182, -1459
21050, -12709, -917, -1158, -3233, -2080, -673
21060, -12770, -1075, -1091, -3437, -2106, -542
21070, -13241, -1108, -816, -3667, -2149, -418
21080, -14212, -1121, 36, -3823, -2822, 79
21090, -14631, -1074, 548, -3804, -3286, 420
21100, -15015, -1018, 1055, -3688, -3744, 828
21110, -15225, -993, 2123, -3307, -4094, 1395
21120, -15189, -916, 2825, -3214, -3505, 1474
21130, -15438, -871, 3301, -3224, -2135, 1302
21140, -16187, -980, 3550, -3381, -340, 1001
21150, -17964, -1567, 3049, -3437, 1133, 503
21160, -18644, -1860, 2257, -2667, 430, 332
21170, -18971, -2077, 1002, -1238, -140, 330
21180, -19041, -2915, -2326, 1300, 804, 337
21190, -19071, -3301, -3106, 955, 1301, 209
21200, -19100, -3148, -2185, -463, 1192, 31
21210, -19018, -771, 2469, -3297, 277, -314
21220, -19068, 429, 4704, -4260, -50, -448
21230, -19379, 1233, 7576, -4716, -1872, -842
21240, -19165, 979, 6818, -3567, -3053, -766
21250, -19174, 604, 4987, -2479, -3734, -671
21260, -19814, -205, 3127, -2183, -3757, -894
21270, -21794, -3180, 48, -2898, -2897, -2384
21280, -22582, -4682, -899, -3061, -2487, -3561
21290, -23232, -5511, -1620, -2665, -1689, -4608
21300, -23209, -5008, -2490, -1597, -518, -4793
21310, -18084, -221, -3564, 853, 319, -2228
21320, -15353, 1578, -3496, 1580, -129, -835
21330, -13048, 1880, -3574, 2220, -378, 357
21340, -10712, 439, -6200, 3860, 458, 1331
21350, -11475, -441, -7683, 3573, 706, 581
21360, -11921, -1271, -8493, 2357, 788, -6
21370, -12873, -1809, -9107, 945, 1316, -609
21380, -16316, -1057, -9137, -2167, 2302, -1778
21390, -18346, 372, -7389, -4223, 1818, -2167
21400, -19533, 1760, -4602, -5792, 1101, -2050
21410, -17919, 2161, -267, -5098, 771, -423
21420, -16168, 1321, 144, -3484, 1046, 349
21430, -14813, 652, -426, -1874, 1592, 907
21440, -13598, 115, -2493, -514, 2493, 1436
21450, -13501, -7, -3231, -787, 2425, 1366
21460, -14488, -67, -4056, -1492, 2198, 441
21470, -15180, 120, -4037, -3825, 2157, -76
21480, -15745, 411, -3678, -5036, 2420, -505
21490, -16053, 611, -3194, -5877, 2716, -823
21500, -15915, 727, -2440, -6349, 3163, -854
21510, -15560, 616, -2203, -6337, 3194, -673
21520, -15352, 532, -1963, -6298, 3042, -555
21530, -15451, 587, -1540, -6326, 2546, -518
21540, -15804, 640, -1308, -6333, 2375, -602
21550, -16236, 699, -1066, -6275, 2043, -643
21560, -16482, 826, -845, -6157, 1591, -628
21570, -16232, 1099, -469, -5870, 793, -540
21580, -15791, 1278, -485, -5786, 572, -587
21590, -15359, 1413, -488, -5859, 490, -675
21600, -14571, 1776, -790, -6166, -286, -950
21610, -14367, 1898, -892, -6455, -476, -1079
21620, -14375, 1880, -1028, -6607, -477, -1227
21630, -14515, 1857, -1074, -6610, -485, -1353
21640, -14924, 1710, -799, -6455, -885, -1534
21650, -15096, 1569, -572, -6351, -1070, -1591
21660, -15197, 1380, -356, -6210, -1169, -1656
21670, -15294, 1081, -116, -5907, -1246, -1827
21680, -15308, 1155, -133, -5745, -1272, -1865
21690, -15313, 1296, -656, -5218, -1332, -1954
21700, -15263, 1082, -962, -4998, -1539, -1999
21710, -15167, 775, -1238, -4809, -1783, -2013
21720, -15135, 510, -1458, -4579, -1936, -2024
21730, -15376, -168, -2233, -3894, -1863, -1957
21740, -15755, -546, -2769, -3481, -1642, -1924
21750, -16358, -693, -3222, -3121, -1284, -1866
21760, -18008, -86, -3816, -2657, -509, -1640
21770, -19109, 425, -3624, -2634, -388, -1533
21780, -20117, 914, -3127, -2657, -577, -1347
21790, -20620, 1384, -2363, -2687, -967, -1142
21800, -20924, 2255, -830, -2888, -1447, -1137
21810, -20785, 2764, -29, -3170, -1419, -1156
21820, -20726, 3396, 576, -3457, -1408, -1096
21830, -20321, 4951, 730, -3907, -1571, -630
21840, -20480, 5560, 100, -4090, -1237, -283
21850, -21172, 5638, -1233, -4083, -683, 94
21860, -22572, 2664, -4638, -3512, -1652, 799
21870, -21846, 677, -5741, -3266, -2709, 825
21880, -20638, -749, -6679, -3102, -3403, 363
21890, -10234, -1248, -6825, -8123, -1138, -1167
21900, -9379, -2749, -5630, -7996, -650, -1357
21910, -10621, -4600, -4797, -6752, -1387, -1657
21920, -13062, -5175, -4787, -4886, -3497, -1608
21930, -18463, -2441, -4419, -2817, -5013, -1160
21940, -19692, -952, -3986, -3086, -3503, -746
21950, -19850, 274, -3412, -3999, -1050, -565
21960, -17672, 1610, -3055, -6746, 2308, -841
21970, -16069, 1686, -2508, -8124, 1411, -968
21980, -14988, 1230, -1871, -8947, -481, -1308
21990, -14870, 805, -1511, -9057, -2106, -1633
22000, -15315, 231, -2518, -8388, -3953, -1602
22010, -15479, 119, -3337, -8507, -3798, -1581
22020, -15345, -123, -3794, -9014, -3498, -1667
22030, -14694, -904, -3824, -10060, -3228, -1960
22040, -14214, -1305, -3590, -10437, -3175, -2005
22050, -13873, -1694, -3277, -10787, -3018, -2142
22060, -13967, -2007, -2098, -11171, -2844, -2308
22070, -14201, -1877, -1459, -11450, -3316, -2369
22080, -14593, -1594, -1073, -11405, -3647, -2373
22090, -15297, -1144, -709, -11566, -3806, -2465
22100, -16494, -487, 432, -12414, -4540, -2678
22110, -16635, -248, 683, -11984, -4236, -2422
22120, -16130, 186, -556, -9676, -2360, -1356
22130, -15710, 227, -1317, -9035, -1707, -1015
22140, -15474, 216, -1897, -8943, -1551, -973
22150, -15128, 372, -2375, -9270, -1632, -992
22160, -14796, 331, -2535, -9929, -1760, -715
22170, -14386, 84, -2645, -10087, -1752, -637
22180, -13740, -336, -2809, -10179, -1547, -525
22190, -12087, -1576, -2555, -10205, -1218, -281
22200, -11714, -1940, -2075, -9964, -1092, -216
22210, -11542, -2323, -1398, -9381, -981, -151
22220, -12433, -3039, -239, -7643, -396, -143
22230, -13070, -3129, 184, -6758, 66, -15
22240, -13602, -3204, 547, -5924, 317, 104
22250, -14008, -3331, 1002, -5314, 267, 196
22260, -15218, -4030, 1958, -5331, 455, -162
22270, -16355, -4208, 2751, -6098, 675, -617
22280, -17300, -3413, 3938, -6925, 888, -900
22290, -17800, -300, 4794, -5945, 2247, -699
22300, -17740, 700, 3016, -3835, 2254, -624
22310, -17831, 881, 768, -1860, 1390, -670
22320, -18917, -485, -2626, -664, 843, -957
22330, -20136, -558, -3168, -1512, 1497, -1299
22340, -20519, -71, -1730, -3246, 1617, -1403
22350, -21460, 2713, 2503, -6656, 614, -1713
22360, -22039, 4118, 5040, -8374, -522, -1840
22370, -22144, 4889, 7251, -9475, -1795, -1778
22380, -21532, 4553, 8387, -9526, -4449, -1536
22390, -20967, 3827, 7477, -9492, -5721, -1692
22400, -20201, 2664, 6100, -9617, -6404, -1991
22410, -19396, 1353, 4655, -9485, -6466, -2187
22420, -18781, -1877, 1288, -7555, -5114, -2073
22430, -21717, -5687, -1033, -2739, -2806, -1856
22440, -22135, -5691, -3404, 1492, -471, -436
22450, -20308, -4619, -6165, 5459, 2096, 1128
22460, -18297, -4268, -9227, 7721, 5232, 1631
22470, -12677, -4511, -13111, 6155, 9819, 1745
22480, -10046, -3936, -13103, 3200, 9461, 1468
22490, -8812, -3384, -11691, -23, 6772, 666
22500, -10802, -2152, -8151, -4911, -469, -1383
22510, -13343, -1716, -6764, -7465, -2563, -2410
22520, -16723, -1398, -4686, -10270, -4221, -3639
22530, -20196, -923, -1887, -12015, -5472, -4313
22540, -23079, 1545, 3938, -8561, -4710, -1371
22550, -21436, 2449, 4588, -3776, -1844, 1128
22560, -16430, 1446, 34, 4501, 3256, 4460
22570, -14818, 412, -2858, 5737, 3332, 4801
22580, -14017, -569, -5140, 5045, 1854, 4182
22590, -14666, -2151, -6632, 2866, -1296, 1871
22600, -14927, -2414, -5566, -2886, -1436, 1176
22610, -14665, -2023, -4158, -4387, -784, 794
22620, -14416, -1445, -3183, -4550, 125, 462
22630, -13895, -499, -2000, -3436, 1231, 532
22640, -13851, -168, -1604, -2779, 1164, 671
22650, -14064, -22, -1229, -2238, 823, 752
22660, -14399, 43, -990, -1812, 551, 749
22670, -15332, 160, -623, -1468, 844, 591
22680, -15482, 319, -384, -1410, 903, 582
22690, -15609, 536, -36, -1262, 545, 545
22700, -15026, 1126, 299, -706, -708, 633
22710, -14509, 1119, 198, -410, -980, 607
22720, -14125, 895, -115, -210, -1212, 475
22730, -13979, 115, -971, -296, -1446, 191
22740, -13960, -15, -1337, -357, -1443, 90
22750, -13831, -193, -1622, -428, -1459, 25
22760, -13460, -641, -1374, -378, -921, -160
22770, -13239, -712, -1006, -105, -875, -213
22780, -14336, 703, 620, 1007, 145, -265
22790, -14901, 1200, 707, 1127, 363, -289
22800, -15438, 1610, 532, 1315, 639, -234
22810, -16079, 1644, -233, 1600, 474, -132
22820, -16417, 1275, -564, 1665, 141, -108
22830, -16894, 918, -858, 1758, -102, -115
22840, -18190, 334, -1613, 1839, 144, -172
22850, -18805, 203, -1786, 1680, 391, -160
22860, -19340, 420, -1709, 1368, 580, -116
22870, -20162, 1504, -856, 582, 751, 62
22880, -20490, 1959, -365, 284, 989, 219
22890, -20888, 2045, 175, 168, 1292, 295
22900, -20277, 834, 1741, 361, 1229, 638
22910, -19337, 209, 2828, 680, 832, 819
22920, -18652, -211, 3791, 1190, 560, 881
22930, -18317, -347, 4213, 1831, 478, 911
22940, -18690, 769, 2402, 3490, -746, 983
22950, -19955, 1398, 86, 4318, -1786, 1097
22960, -21548, 1430, -2275, 4811, -3068, 1289
22970, -22322, -142, -6153, 4157, -5062, 2016
22980, -20022, -558, -6739, 3324, -5489, 2109
22990, -17787, -404, -7045, 2628, -5337, 1516
23000, -15482, -142, -7133, 1714, -4537, 1020
23010, -12522, -605, -6833, -385, -2877, 368
23020, -12353, -1605, -6705, -662, -2301, -21
23030, -14788, -4355, -6764, 412, -1552, -621
23040, -16256, -5071, -6402, 1250, -1215, -657
23050, -17400, -4954, -5870, 2043, -581, -544
23060, -17800, -2425, -4148, 2715, 1240, -34
23070, -17346, -940, -2715, 2316, 1654, 19
23080, -16730, 150, -1137, 1674, 1673, 12
23090, -16340, 990, 1247, 1106, 1434, -92
23100, -16602, 803, 1702, 397, 443, -567
23110, -16845, 495, 1548, 249, -512, -727
23120, -17097, 202, 610, 98, -1595, -936
23130, -16702, -459, -1200, -811, -3016, -1182
23140, -16064, -656, -1780, -1207, -3632, -1267
23150, -15266, -835, -2048, -1450, -4012, -1286
23160, -14568, -1170, -2280, -1558, -4230, -1367
23170, -13549, -1524, -2456, -2181, -3726, -1683
23180, -13166, -1105, -2174, -2891, -3278, -1862
23190, -13232, -636, -1611, -3835, -3096, -2158
23200, -13716, -306, -793, -4844, -3275, -2617
23210, -14909, -269, 580, -5366, -2528, -3051
23220, -15308, -301, 793, -4568, -1391, -2925
23230, -15346, -396, 684, -3450, -312, -2625
23240, -14740, -851, 16, -1572, 797, -2137
23250, -14264, -1107, -270, -1233, 699, -1862
23260, -13432, -875, -331, -1505, 62, -1256
23270, -13171, -778, -24, -1659, -611, -1028
23280, -13061, -770, 136, -1594, -1001, -769
23290, -12917, -934, 193, -1450, -863, -195
23300, -13073, -954, 333, -1547, -879, 43
23310, -13216, -889, 593, -1620, -1173, 323
23320, -13348, -773, 956, -1620, -1631, 659
23330, -13623, -532, 2117, -1358, -2185, 1305
23340, -13873, -342, 2937, -1056, -1439, 1423
23350, -14733, -366, 3539, -711, 548, 1293
23360, -16842, -1113, 3718, -24, 4730, 1434
23370, -17419, -1468, 3258, 374, 4870, 1632
23380, -18085, -2075, 2617, 701, 3769, 1493
23390, -18403, -2881, 1594, 904, 2227, 1186
23400, -18765, -3091, -84, 850, -287, 503
23410, -19280, -2812, -587, 1212, -249, 226
23420, -20187, -2666, -1437, 2077, 812, -11
23430, -21978, -2853, -462, 1963, 2552, -509
23440, -21893, -1990, 1612, 832, 3260, -733
23450, -21332, -415, 3902, -234, 3560, -948
23460, -20049, 1977, 7807, -1281, 492, -1012
23470, -20530, 1323, 7842, -1393, -2151, -1216
23480, -21751, -977, 3920, -1366, -5043, -1464
23490, -22385, -2154, 1693, -1699, -8221, -2569
23500, -22484, -3212, 57, -1512, -8805, -3193
23510, -21899, -3628, -991, -518, -8571, -3450
23520, -17617, -3083, -3930, 4659, -4077, -1296
23530, -15010, -3046, -6340, 7633, -903, 96
23540, -12989, -3229, -8602, 9586, 1123, 762
23550, -12167, -3277, -10608, 9974, 1840, 840
23560, -13562, -359, -9821, 5596, 825, -159
23570, -14738, 812, -7309, 3126, 340, -580
23580, -16073, 1018, -5897, 2356, 448, -837
23590, -18143, -1066, -5495, 1916, 497, -1080
23600, -18221, -1612, -4335, 661, -839, -896
23610, -17678, -1556, -2819, -294, -2273, -668
23620, -16866, -581, 108, -320, -3258, -220
23630, -16516, -79, 1344, 577, -2523, 201
23640, -16096, 269, 1855, 2015, -861, 706
23650, -14972, 439, 664, 5015, 1470, 1676
23660, -14630, 191, -315, 5747, 1149, 1845
23670, -14596, -251, -1033, 5768, 494, 1735
23680, -14626, -675, -1357, 5336, 118, 1552
23690, -14816, -817, -1669, 4369, 502, 1025
23700, -14815, 447, -1548, 2966, 689, 714
23710, -15323, 502, -942, 1797, 432, 624
23720, -15344, 546, -388, 1320, 157, 660
23730, -15450, 639, 215, 1112, 37, 623
23740, -15450, 698, 1092, 1185, 154, 620
23750, -15297, 685, 1194, 1861, 580, 726
23760, -15064, 595, 1206, 2212, 460, 715
23770, -14810, 476, 1007, 2432, 37, 663
23780, -14181, 82, 749, 2241, -832, 519
23790, -13904, -17, 555, 2210, -1147, 431
23800, -13615, 6, 302, 2238, -1179, 359
23810, -13561, 124, 119, 2261, -1004, 221
23820, -13838, 166, 317, 2083, -247, -77
23830, -14112, 105, 651, 2139, 162, -222
23840, -14345, 38, 883, 2305, 584, -331
23850, -14527, -121, 1125, 2495, 1239, -500
23860, -14698, -59, 1142, 2564, 1435, -623
23870, -15284, 155, 1096, 2629, 1730, -787
23880, -16310, 1217, 174, 2763, 1896, -863
23890, -16563, 1810, -549, 3152, 940, -611
23900, -16778, 2103, -1310, 3046, 604, -457
23910, -17061, 1689, -1867, 2720, 544, -313
23920, -17218, -632, -771, 1937, 1293, -53
23930, -17783, -974, 88, 2042, 2287, -157
23940, -19906, 729, 914, 2400, 4299, -302
23950, -21207, 1807, 903, 2339, 4638, -208
23960, -22026, 2477, 924, 2174, 4168, 96
23970, -20931, 1273, 1840, 1944, 1355, 655
23980, -19593, 300, 2581, 2037, 286, 759
23990, -18746, -424, 3048, 2307, -70, 732
24000, -18505, -818, 3158, 3472, -463, 690
24010, -19086, -471, 2526, 4366, -638, 712
24020, -20222, 108, 1017, 5396, -898, 856
24030, -22149, 35, -1196, 6334, -1612, 1077
24040, -24060, -1704, -5571, 6619, -4121, 2001
24050, -22264, -2586, -6388, 6044, -5800, 2261
24060, -19405, -2657, -6571, 5488, -6552, 1974
24070, -14136, -2403, -6596, 4407, -5009, 853
24080, -12307, -2335, -6382, 3720, -4294, 331
24090, -11036, -2219, -6247, 3178, -3642, -56
24100, -12401, -2626, -6379, 2896, -1166, -934
24110, -15450, -3086, -6642, 3217, -99, -1396
24120, -18075, -3150, -6663, 3737, 287, -1489
24130, -19865, -1900, -3536, 4211, 1092, -757
24140, -18976, -926, -1719, 4390, 1716, -361
24150, -17505, -185, -255, 4230, 2356, -173
24160, -16444, -6, 1671, 3604, 2547, -290
24170, -15798, -661, 2254, 2525, -839, -854
24180, -16122, -1113, 1496, 2800, -2892, -1177
24190, -15568, -1361, -1492, 3459, -3844, -1204
24200, -15136, -1221, -2674, 3318, -3263, -1260
24210, -14559, -864, -3576, 2848, -2575, -1299
24220, -13311, -70, -3992, 1255, -1721, -1378
24230, -12916, -194, -3666, 466, -1393, -1504
24240, -12886, -589, -3070, -187, -1095, -1684
24250, -13352, -1297, -1898, -630, -792, -1827
24260, -13611, -1349, -1339, -1370, 95, -1969
24270, -14022, -1216, -706, -1861, 446, -2068
24280, -14640, -802, -135, -2312, 657, -2217
24290, -15906, -457, 1430, -3155, -387, -2667
24300, -15853, -617, 2043, -2970, -1056, -2536
24310, -15385, -782, 2047, -2183, -1073, -2225
24320, -14821, -781, 953, -694, 227, -1825
24330, -14575, -680, 541, -456, 547, -1593
24340, -14287, -572, 352, -471, 422, -1365
24350, -14107, -446, 269, -606, 90, -1189
24360, -13740, -123, 174, -848, -615, -623
24370, -13665, 4, 247, -1044, -984, -332
24380, -13576, 63, 496, -1359, -1245, 5
24390, -13765, -25, 1016, -1706, -1400, 643
24400, -13844, -220, 1384, -1688, -1273, 918
24410, -14518, -1271, 2019, -1413, -7, 1122
24420, -15056, -1957, 2096, -1332, 752, 1064
24430, -15542, -2538, 2264, -1466, 1131, 929
24440, -15973, -2917, 2416, -1777, 1118, 742
24450, -16937, -2637, 2289, -2530, 479, 37
24460, -17520, -1827, 1889, -2666, -394, -389
24470, -18189, -851, 1241, -2279, -1149, -498
24480, -19358, -1025, -1837, 95, -292, -268
24490, -20154, -2378, -2991, 377, 711, -458
24500, -20813, -3732, -2397, -434, 1530, -618
24510, -20697, -3009, 1668, -2739, 3287, -616
24520, -20201, -1220, 3930, -3617, 3540, -706
24530, -20000, 531, 6047, -4244, 2651, -966
24540, -21303, 1847, 7975, -4714, -1216, -1715
24550, -22086, 1150, 7121, -4676, -3381, -1964
24560, -22374, -382, 5167, -4627, -4929, -2118
24570, -22296, -2262, 2592, -4511, -5776, -2417
24580, -21534, -5145, -1840, -3369, -6755, -3606
24590, -21094, -5849, -2951, -1965, -5869, -3969
24600, -20532, -5467, -4213, -44, -3345, -3786
24610, -17486, -1295, -6316, 3000, 2613, -1814
24620, -15849, 45, -5922, 3260, 2650, -817
24630, -11640, 228, -5807, 4495, 33, 1268
24640, -12872, -638, -7136, 4333, 918, 819
24650, -14526, -1322, -8205, 3284, 1336, 17
24660, -18112, -963, -7165, -445, 1192, -1067
24670, -19024, -9, -5111, -1900, 884, -1067
24680, -19286, 561, -2808, -2554, 305, -858
24690, -17424, 1120, 623, -1757, -1027, 551
24700, -16060, 1020, 1131, -364, -1386, 1306
24710, -14996, 776, 800, 1293, -1364, 1828
24720, -14314, -28, -1200, 3091, 121, 1907
24730, -14398, -535, -2050, 2681, 791, 1594
24740, -14581, -950, -2507, 1773, 898, 1104
24750, -14713, -1072, -2579, 762, 680, 581
24760, -14827, -625, -2221, -337, 1133, -43
24770, -14704, -413, -2109, -226, 1588, -2
24780, -14639, -179, -2021, 67, 1792, 78
24790, -14865, 355, -1711, 323, 1640, 290
24800, -15074, 623, -1451, 220, 1389, 336
24810, -15525, 892, -1148, 37, 1160, 331
24820, -16014, 1103, -809, -59, 944, 341
24830, -16303, 1283, -310, 150, 503, 482
24840, -16004, 1144, -213, 288, 505, 551
24850, -15360, 840, -58, 305, 636, 588
24860, -14114, 395, 81, 431, -657, 449
24870, -13840, 290, 37, 440, -932, 275
24880, -13920, 302, -217, 474, 1, -62
24890, -14036, 387, -232, 616, 62, -153
24900, -14218, 349, -106, 811, 84, -304
24910, -14414, 373, 43, 1016, 206, -474
24920, -14458, 688, 431, 1237, 164, -668
24930, -14426, 817, 535, 1255, 8, -801
24940, -14504, 968, 514, 1274, 74, -930
24950, -14731, 1173, 346, 1327, 220, -983
24960, -15280, 1627, -448, 1612, 321, -883
24970, -15507, 1572, -847, 1670, 270, -823
24980, -15819, 1104, -923, 1629, 174, -810
24990, -16774, -181, -704, 1672, 333, -816
25000, -17476, -546, -556, 1865, 590, -788
25010, -18269, -617, -412, 2112, 828, -719
25020, -19006, -231, -284, 2306, 959, -646
25030, -20247, 1805, -129, 2218, 911, -373
25040, -20808, 2972, -222, 1991, 726, -101
25050, -21236, 3830, -380, 1794, 289, 136
25060, -20870, 2967, 203, 1445, -687, 453
25070, -20138, 1878, 1045, 1381, -927, 520
25080, -19437, 1129, 1956, 1348, -927, 555
25090, -18910, 1351, 2342, 1776, -712, 568
25100, -19684, 2343, 728, 2428, -990, 691
25110, -21061, 3145, -1709, 3049, -1604, 1152
25120, -23600, 759, -6138, 3343, -3688, 2580
25130, -22511, -1218, -7102, 3078, -4610, 3106
25140, -20116, -2555, -7252, 2736, -4887, 2891
25150, -14644, -2442, -6938, 1335, -3589, 1517
25160, -12368, -2068, -6381, 88, -3141, 1068
25170, -10918, -1919, -5712, -900, -3056, 558
25180, -10698, -2258, -4684, -1299, -3166, -38
25190, -15244, -3325, -3877, 487, -4024, -971
25200, -17574, -3321, -4044, 1556, -2589, -992
25210, -18869, -2980, -3919, 2015, -425, -764
25220, -18206, -1022, -3051, 1390, 849, -369
25230, -17273, -344, -2241, 371, 165, -374
25240, -15822, -50, -793, -1227, -1509, -610
25250, -15460, -69, -801, -1301, -2024, -710
25260, -15379, -115, -1402, -1155, -2285, -781
25270, -15308, -313, -2756, -1320, -2364, -892
25280, -15273, -337, -3247, -1624, -2248, -992
25290, -15232, -293, -3683, -2057, -1843, -1145
25300, -15033, -492, -3979, -3307, -817, -1469
25310, -14759, -793, -3528, -3991, -649, -1621
25320, -14341, -1079, -2780, -4513, -822, -1726
25330, -13733, -1572, -1132, -5052, -1452, -1737
25340, -13801, -1820, -324, -5188, -1851, -1728
25350, -14779, -1697, 865, -5278, -2075, -1802
25360, -15431, -1295, 925, -5192, -1544, -2029
25370, -15959, -857, 818, -5148, -1364, -2214
25380, -16252, -442, 751, -5245, -1585, -2453
25390, -15654, 1, 226, -4807, -815, -2254
25400, -15428, 328, -210, -4494, -366, -2177
25410, -15209, 692, -662, -4448, 237, -2097
25420, -14923, 913, -904, -5206, 700, -2001
25430, -14788, 808, -830, -5525, 299, -1963
25440, -14492, 594, -801, -5584, 1, -1765
25450, -13407, -593, -1169, -5414, -146, -1265
25460, -12832, -1026, -1241, -5513, -910, -962
25470, -12468, -1091, -813, -6095, -1565, -772
25480, -12783, -1015, -117, -6627, -2006, -802
25490, -14080, -800, 1080, -6613, -2361, -469
25500, -14832, -584, 1437, -6157, -2114, -138
25510, -15332, -504, 1721, -5653, -1727, 221
25520, -16057, -878, 1855, -4566, -312, 731
25530, -16310, -1147, 1921, -4305, 493, 847
25540, -16666, -1396, 2155, -4389, 1262, 815
25550, -17480, -1725, 2670, -4684, 1946, 543
25560, -19125, -2198, 202, -2872, 108, -166
25570, -19660, -2532, -824, -2033, 242, -311
25580, -20380, -3194, -409, -2612, 1371, -690
25590, -20148, -2776, 1449, -3618, 1318, -958
25600, -19573, -1569, 3538, -4509, 1017, -1163
25610, -18715, 626, 6954, -5126, -1217, -1253
25620, -19186, 704, 7374, -5386, -2734, -1387
25630, -19968, 239, 6308, -5088, -4188, -1474
25640, -20987, -585, 3987, -4819, -5118, -1557
25650, -23458, -1789, -475, -5089, -6911, -2585
25660, -23490, -1294, -1550, -4983, -7842, -2942
25670, -22385, -103, -2455, -3936, -7780, -2778
25680, -17913, 2609, -5271, -349, -3875, -845
25690, -15474, 2156, -6098, 769, -1752, 283
25700, -12902, 595, -6697, 1527, -905, 1094
25710, -10683, -848, -7732, 2154, -938, 1353
25720, -9549, -1439, -9815, 837, -570, -238
25730, -10634, -843, -9929, -1443, 599, -1279
25740, -12305, 250, -9367, -3918, 1834, -2150
25750, -16958, 2310, -6607, -8051, 1584, -3507
25760, -18988, 2891, -4437, -9478, 1047, -3712
25770, -20037, 3034, -1871, -10059, 918, -3311
25780, -17841, 2120, 174, -6791, 2005, -754
25790, -15481, 1812, -1131, -4373, 3275, 563
25800, -13904, 1512, -3014, -3053, 4640, 1152
25810, -13160, 1047, -5489, -4237, 4872, 637
25820, -13557, 709, -5572, -5935, 4022, 14
25830, -14080, 298, -5068, -7706, 3258, -557
25840, -14808, 313, -3159, -10149, 2669, -1164
25850, -15075, 655, -2239, -10626, 2742, -1214
25860, -15268, 821, -1576, -10808, 2770, -1225
25870, -15477, 735, -1092, -10832, 2702, -1263
25880, -16256, 488, -571, -10344, 2904, -1220
25890, -16700, 516, -914, -9779, 3218, -1049
25900, -17037, 705, -1514, -9278, 3682, -832
25910, -17354, 1363, -2674, -8853, 4043, -558
25920, -17261, 1611, -3073, -8963, 3819, -582
25930, -16961, 1660, -3202, -9301, 3415, -681
25940, -16637, 1433, -3122, -9712, 2875, -870
25950, -15922, 553, -2414, -10277, 1707, -1210
25960, -15562, 267, -2035, -10322, 1244, -1276
25970, -15332, 155, -1765, -10191, 1000, -1329
25980, -15078, -120, -1047, -9620, 549, -1444
25990, -15004, -112, -826, -9131, 59, -1476
26000, -15006, -29, -681, -8594, -250, -1531
26010, -15047, 204, -648, -7804, -591, -1798
26020, -15144, 514, -697, -7582, -711, -1898
26030, -15274, 1057, -862, -7361, -826, -1951
26040, -15483, 2304, -1604, -7151, -778, -1888
26050, -15582, 2688, -2051, -7230, -683, -1914
26060, -15735, 2618, -2465, -7407, -730, -2008
26070, -15639, 714, -2390, -7442, -1766, -2087
26080, -15494, -431, -2105, -7080, -2222, -2031
26090, -15470, -1448, -1848, -6561, -2379, -2012
26100, -15671, -2494, -1158, -5591, -2411, -2100
26110, -16306, -2558, -585, -5158, -2401, -2171
26120, -17000, -1911, -149, -4575, -2329, -1991
26130, -17711, -638, -418, -2842, -1854, -1129
26140, -17883, -325, -855, -2080, -1879, -818
26150, -17947, -208, -1209, -1545, -2101, -595
26160, -17965, -150, -1402, -1184, -2353, -483
