timestamp, ax, ay, az, gx, gy, gz
0, -21565, -915, 2002, 3205, -125, 832
10, -20778, 19, 2043, 3020, 86, 1764
20, -20713, 764, 1219, 2648, 80, 2433
30, -21316, 1053, -732, 2583, -800, 2997
40, -21996, -1284, -5000, 2186, -4561, 3923
50, -20820, -3521, -5591, 1296, -5088, 4129
60, -19557, -5540, -5408, 810, -4701, 3437
70, -17921, -6497, -5029, 1215, -3845, 2523
80, -13942, -5089, -5294, 3498, -1658, 1644
90, -11659, -4423, -5511, 3688, -404, 1721
100, -10100, -5549, -4866, 2738, 800, 382
110, -11905, -6943, -4942, 2676, -572, -491
120, -14228, -7771, -5362, 2783, -2713, -861
130, -17301, -8017, -5045, 2548, -3246, -907
140, -17583, -7130, -4920, 2757, -1853, -786
150, -16555, -5902, -4517, 3084, -360, -448
160, -14279, -4040, -3474, 3648, 124, -133
170, -13600, -3613, -2815, 3818, -432, -136
180, -13382, -3779, -2053, 4025, -761, -282
190, -14541, -4407, -1371, 5103, -455, -682
200, -15285, -4428, -1656, 5612, -285, -660
210, -15734, -4244, -1787, 5641, -175, -596
220, -15739, -3791, -1648, 5324, -120, -591
230, -14850, -2237, -1484, 4249, 147, -678
240, -14347, -1640, -1381, 3614, 351, -729
250, -14040, -1326, -1157, 3059, 251, -766
260, -14072, -1553, -716, 2355, -447, -917
270, -14525, -2021, -456, 2155, -797, -1048
280, -14881, -2464, -222, 1962, -1008, -1071
290, -15027, -2893, 215, 1739, -1182, -1079
300, -14879, -3169, 220, 1141, -1588, -1217
310, -14568, -3037, 357, 973, -1780, -1178
320, -14284, -2756, 455, 1004, -1711, -1087
330, -14072, -1966, 290, 1486, -833, -772
340, -14284, -1429, 190, 1637, -654, -625
350, -14933, -627, 602, 957, -1494, -546
360, -15154, -475, 1056, 262, -2033, -427
370, -15151, -579, 1588, -397, -2522, -203
380, -14434, -1443, 2181, -733, -2922, 606
390, -13651, -1879, 2092, -469, -2872, 1052
400, -12884, -2199, 1696, -217, -2660, 1277
410, -12530, -2450, 1199, -119, -2325, 1201
420, -13108, -2479, 385, -236, -1787, 855
430, -13757, -2347, 356, -409, -1578, 735
440, -14469, -2156, 631, -632, -1372, 633
450, -15528, -2088, 1482, -1246, 368, 605
460, -16033, -2519, 1769, -1542, 1623, 517
470, -16692, -3041, 2016, -1777, 2283, 303
480, -17601, -3204, 2317, -1826, 2121, 22
490, -19941, -2703, 2437, -818, 920, -265
500, -21253, -3063, 1609, 181, 1360, -314
510, -22121, -3449, 616, 893, 1963, -262
520, -20431, -2695, 1367, -578, 1640, 105
530, -19934, -1599, 2532, -2225, 983, -184
540, -19708, -200, 3740, -3927, 149, -371
550, -19696, 797, 4851, -5347, -933, -436
560, -20063, 770, 5640, -6804, -3895, -926
570, -20800, -525, 5114, -7155, -5410, -1425
580, -21548, -4307, 3047, -6370, -5346, -2356
590, -21328, -6277, 1702, -4465, -3958, -2962
600, -20696, -7403, -249, -1629, -1516, -3211
610, -17292, -6996, -5139, 3173, 4154, -1459
620, -15292, -6369, -7052, 4046, 5351, -526
630, -13327, -5810, -8409, 4114, 5476, 260
640, -11151, -5000, -9206, 2536, 5460, 85
650, -11500, -4259, -8671, 1542, 5567, -536
660, -11686, -3720, -8247, 890, 4888, -527
670, -13995, -3223, -7884, -456, 2350, -696
680, -16605, -2969, -7470, -1841, 1039, -1352
690, -18921, -2445, -6299, -3488, -413, -1769
700, -20389, -1751, -4366, -4611, -1617, -1873
710, -19462, -1879, -780, -3493, -1805, -881
720, -17457, -2509, -332, -1633, -1404, 361
730, -15740, -2962, -422, 80, -1437, 1408
740, -13866, -3256, -995, 1723, -2068, 2354
750, -13509, -3388, -1042, 1567, -2080, 2194
760, -13473, -3559, -951, 1035, -1761, 1691
770, -13751, -3515, -792, 96, -780, 719
780, -13945, -3272, -641, 4, -417, 528
790, -14213, -2942, -564, 248, -331, 481
800, -14372, -2014, -284, 2225, 482, 864
810, -14364, -1940, -245, 2391, 278, 696
820, -14359, -1689, -58, 2384, 94, 543
830, -14476, -1188, 171, 2277, -77, 293
840, -14680, -1090, 221, 2258, -8, 116
850, -14711, -1206, 114, 2287, 117, -42
860, -14459, -1624, -125, 1950, 162, -279
870, -14275, -1685, -252, 1799, 37, -428
880, -14057, -1771, -219, 1505, 20, -585
890, -13903, -1743, -5, 1257, 44, -721
900, -14062, -1477, 237, 1345, 282, -918
910, -14174, -1401, 262, 1564, 440, -992
920, -14369, -1420, 205, 1768, 543, -1008
930, -14531, -1798, 220, 1958, 732, -1003
940, -14749, -1985, 217, 1977, 982, -1058
950, -15213, -1922, 232, 1972, 1159, -1149
960, -16399, -942, -177, 1973, 1091, -1097
970, -16910, -349, -665, 1999, 751, -920
980, -17231, -169, -1167, 1897, 335, -689
990, -17449, -2347, -862, 1656, 32, -427
1000, -17707, -3301, -49, 1677, 130, -32
1010, -18605, -2911, 414, 2461, 446, -60
1020, -19751, -1307, 120, 3380, 994, 45
1030, -21756, 1147, -910, 4047, 1721, 588
1040, -22522, 1364, -821, 3836, 1405, 758
1050, -20766, -1395, 1195, 3449, 662, 958
1060, -19460, -2163, 2357, 3608, 582, 1149
1070, -19036, -2248, 3066, 3930, 902, 1303
1080, -19561, -1730, 2980, 4365, 1218, 1503
1090, -23021, -999, -1073, 5484, -107, 2318
1100, -24824, -2037, -3489, 5726, -2312, 2829
1110, -24742, -3766, -4873, 5344, -4659, 3582
1120, -20858, -7263, -5112, 3712, -6588, 3750
1130, -18257, -7940, -4729, 3519, -5535, 2594
1140, -15493, -7315, -4454, 3969, -3501, 1497
1150, -10895, -4593, -4532, 5051, -1246, 499
1160, -9841, -3609, -4868, 4899, -1229, 55
1170, -10039, -3563, -5385, 4292, -1242, -395
1180, -15004, -6060, -6313, 3438, -1705, -1504
1190, -16577, -6972, -5972, 3690, -1556, -1523
1200, -17496, -7320, -4878, 4546, -577, -1273
1210, -17469, -6773, -3867, 6090, 50, -829
1220, -15455, -5112, -2509, 8628, -245, 23
1230, -14356, -4478, -1960, 8824, 182, 226
1240, -13753, -4022, -1647, 8497, 976, 84
1250, -14340, -3968, -1539, 6877, 2203, -840
1260, -14641, -3959, -1410, 6028, 2068, -990
1270, -14914, -3577, -1266, 5550, 1393, -1050
1280, -15166, -2087, -1335, 5057, 350, -1025
1290, -14855, -1456, -1506, 4809, 558, -965
1300, -14124, -1082, -2120, 4460, 1285, -1037
1310, -13763, -1410, -2196, 4326, 1253, -1078
1320, -13670, -1905, -2044, 4115, 706, -1221
1330, -14171, -2739, -1276, 2972, -458, -1643
1340, -14414, -2894, -862, 2232, -283, -1734
1350, -14591, -2901, -531, 1586, 209, -1785
1360, -14792, -2588, -80, 1187, 631, -1785
1370, -14713, -2308, 86, 1102, 511, -1534
1380, -14645, -2043, 207, 1222, 94, -1441
1390, -14694, -1784, 360, 1263, -350, -1415
1400, -14530, -1534, 551, 1205, -741, -1285
1410, -14207, -1397, 504, 1201, -778, -1121
1420, -13896, -1370, 406, 1043, -758, -952
1430, -12953, -1552, 620, 471, -776, -483
1440, -12562, -1660, 721, 319, -686, -206
1450, -12387, -1605, 731, 236, -434, 45
1460, -13255, -1583, 398, 103, -19, 254
1470, -14000, -1683, 214, -27, -129, 408
1480, -14772, -1943, 92, -296, -305, 587
1490, -15992, -2850, 384, -684, -582, 742
1500, -16460, -3286, 788, -1639, -999, 784
1510, -16640, -3408, 1310, -2144, -898, 774
1520, -17035, -2902, 2228, -3057, 321, 802
1530, -17738, -2510, 2328, -3195, 1042, 591
1540, -18651, -2152, 1853, -2983, 1181, 330
1550, -20278, -2971, -415, -1667, 100, -200
1560, -20580, -4533, -1755, -999, 43, -437
1570, -20385, -6031, -1824, -1160, 92, -617
1580, -20837, -6254, 1497, -2955, 560, -1181
1590, -20854, -4183, 3320, -3864, 843, -1251
1600, -21285, -1957, 4984, -4780, 723, -1470
1610, -22164, -454, 7430, -5710, -2507, -1824
1620, -22149, -1792, 7359, -6870, -4478, -2171
1630, -22064, -3448, 5579, -6784, -5859, -3007
1640, -21961, -4995, 3111, -6380, -6479, -4153
1650, -19543, -8269, -362, -3811, -5159, -5205
1660, -18372, -10101, -2448, -614, -1710, -4810
1670, -17259, -9483, -5675, 2989, 2469, -3510
1680, -13536, -5091, -10721, 5693, 4279, -300
1690, -11981, -3433, -10798, 4334, 2480, 366
1700, -11167, -2228, -8915, 2510, 853, 656
1710, -12564, 48, -5293, 1937, -483, 531
1720, -13533, 311, -4423, 2505, -434, 611
1730, -14530, -905, -4775, 3131, 152, 590
1740, -17750, -3948, -7094, 2064, 855, -257
1750, -16776, -1723, -2735, -2074, -1673, 469
1760, -15180, -841, -667, -875, -2931, 1217
1770, -14631, -749, -270, -109, -2945, 1487
1780, -14403, -899, -315, 580, -2296, 1545
1790, -14416, -2069, -1359, 1025, -1288, 1448
1800, -14473, -2855, -1696, 667, -314, 938
1810, -14247, -3270, -1730, 120, -687, 657
1820, -14058, -3391, -1549, -342, -984, 309
1830, -13707, -2517, -1205, -605, -432, 65
1840, -13627, -1880, -1094, -336, -77, 198
1850, -13767, -1298, -1085, 143, 127, 394
1860, -14625, -499, -1369, 1313, 286, 833
1870, -15215, -390, -1706, 1733, 610, 950
1880, -15753, -466, -2130, 1912, 982, 960
1890, -15644, -1157, -2358, 1435, 1074, 849
1900, -14933, -1607, -1928, 1019, 312, 681
1910, -14255, -1979, -1396, 682, -743, 404
1920, -13814, -2222, -346, 395, -1378, 103
1930, -13586, -2324, -244, 20, -1026, -336
1940, -13595, -2216, -84, -20, -688, -424
1950, -13626, -2170, 195, 120, -549, -463
1960, -13877, -1891, 524, 1081, -389, -506
1970, -14035, -1743, 447, 1626, -26, -530
1980, -14296, -1610, 327, 2018, 432, -649
1990, -14936, -1196, -65, 2247, 1053, -1063
2000, -15109, -964, -175, 2030, 1119, -1241
2010, -15185, -801, -103, 1688, 1056, -1362
2020, -15493, -283, -111, 1215, 676, -1447
2030, -15649, 44, -393, 1123, 531, -1324
2040, -16009, 258, -815, 971, 421, -1191
2050, -16583, 94, -1264, 763, 355, -1060
2060, -18130, -2109, -1595, 448, 546, -617
2070, -18742, -3351, -1304, 557, 609, -331
2080, -19365, -3847, -724, 895, 681, -263
2090, -20458, -1453, 464, 2024, 1646, -214
2100, -20999, 116, 651, 2487, 2125, -56
2110, -21687, 1128, 719, 2776, 2040, 128
2120, -21594, 527, 962, 2803, 452, 372
2130, -20412, -297, 1531, 2495, -660, 441
2140, -19270, -764, 2139, 2197, -1439, 523
2150, -18928, -913, 2386, 2143, -1559, 557
2160, -20061, -425, 769, 2778, -1173, 1049
2170, -21471, -336, -1225, 3176, -1372, 1573
2180, -22907, -1113, -3302, 3423, -2547, 2109
2190, -21830, -4173, -5698, 2242, -5600, 3031
2200, -19753, -4920, -5957, 1133, -6217, 2616
2210, -17718, -4926, -5742, 306, -5891, 1649
2220, -13839, -3325, -6028, -23, -4115, 589
2230, -11862, -2731, -6016, -259, -3075, 451
2240, -10447, -2733, -5524, -613, -1978, 146
2250, -13555, -5338, -5041, 207, -1836, -1190
2260, -16161, -6164, -4920, 1037, -2846, -1444
2270, -17799, -6461, -4193, 1644, -2933, -1243
2280, -18265, -6078, -3436, 2308, -1971, -860
2290, -16876, -4182, -2467, 3317, 452, -327
2300, -15575, -3361, -1952, 3254, 297, -288
2310, -14701, -2896, -1398, 2781, -712, -484
2320, -14038, -2362, -745, 1096, -2262, -1029
2330, -14236, -2390, -676, 133, -2188, -1251
2340, -14631, -2261, -957, -584, -1968, -1361
2350, -14821, -1909, -1686, -1212, -1995, -1321
2360, -14667, -1992, -2024, -1427, -2035, -1337
2370, -14405, -2201, -2216, -1693, -1928, -1450
2380, -13777, -3054, -2273, -2154, -1690, -1690
2390, -13583, -3412, -2311, -2327, -1456, -1825
2400, -13488, -3799, -2243, -2588, -1112, -1934
2410, -14140, -3733, -1680, -3451, -891, -2333
2420, -14778, -3136, -1195, -4105, -919, -2562
2430, -15485, -2272, -499, -4912, -1051, -2821
2440, -16828, -404, 1236, -6452, -2084, -3318
2450, -17368, 394, 1959, -6847, -2721, -3524
2460, -17382, 547, 2331, -6877, -3078, -3666
2470, -16620, 135, 1786, -5447, -1706, -3108
2480, -16117, -161, 862, -4498, -585, -2586
2490, -15380, -624, -32, -4038, 75, -2070
2500, -13448, -1761, -1305, -4216, -132, -1287
2510, -12468, -2418, -1655, -4698, -696, -995
2520, -11766, -3085, -1697, -5375, -1509, -784
2530, -11125, -3352, -1228, -6091, -2425, -447
2540, -10860, -2951, 343, -6513, -2957, 214
2550, -11578, -2954, 525, -5912, -2551, 404
2560, -12710, -3015, 306, -5387, -2376, 644
2570, -14484, -3009, 623, -5639, -2787, 1373
2580, -15169, -2725, 1415, -6112, -2625, 1607
2590, -15748, -2202, 2520, -6532, -1858, 1588
2600, -16417, -1884, 3531, -6729, -356, 1247
2610, -17328, -1986, 3940, -6111, 2971, 922
2620, -17655, -2273, 3058, -5523, 2961, 865
2630, -18023, -2727, 1720, -5141, 1626, 593
2640, -18954, -4115, -175, -5297, -327, -105
2650, -19385, -5102, -575, -5325, -125, -298
2660, -19961, -5913, -327, -5301, 323, -560
2670, -19519, -2101, 5111, -6454, -397, -1318
2680, -19194, -1285, 5983, -6891, -1295, -1179
2690, -19493, -2078, 5422, -7125, -2589, -1286
2700, -21903, -3391, 3635, -7189, -5116, -2157
2710, -23292, -4572, 2077, -7482, -5776, -3178
2720, -24514, -5437, 1113, -7285, -5996, -4461
2730, -24418, -4792, -2488, -3569, -1604, -4837
2740, -21704, -3239, -5472, -1180, 1589, -3128
2750, -14223, -296, -9158, 941, 2442, 527
2760, -10677, 160, -9688, 721, 547, 1652
2770, -7386, -694, -9786, -1509, -1950, 871
2780, -8525, -1997, -9209, -3209, -1448, -599
2790, -9974, -3011, -9035, -4626, -264, -1619
2800, -11740, -3454, -9174, -5864, 1006, -2256
2810, -16535, -2932, -7874, -8502, 2364, -3462
2820, -18603, -2024, -5929, -9426, 2387, -3454
2830, -19295, -902, -3619, -9509, 1752, -2781
2840, -17446, -213, -724, -7250, 1619, -774
2850, -15729, -622, -1254, -5523, 2371, 174
2860, -14343, -1110, -2481, -4092, 3152, 727
2870, -13604, -1503, -3592, -3442, 3830, 869
2880, -13217, -2360, -4899, -4099, 4064, 257
2890, -13565, -2900, -5082, -4881, 3221, -407
2900, -14513, -3542, -4851, -6939, 1794, -1702
2910, -15049, -3255, -4328, -7834, 1867, -2162
2920, -15496, -2565, -3848, -8277, 1968, -2375
2930, -15902, -1176, -2734, -8252, 953, -2096
2940, -15910, -680, -2214, -7991, 177, -1792
2950, -15812, -215, -1900, -7654, -289, -1455
2960, -15818, 302, -1972, -7284, -262, -1272
2970, -16077, 112, -2280, -6546, 484, -1372
2980, -16149, -215, -2628, -6330, 436, -1442
2990, -16049, -540, -2919, -6187, 111, -1436
3000, -15579, -1176, -3392, -6038, -537, -1394
3010, -15162, -1550, -3558, -6048, -711, -1428
3020, -14751, -1851, -3696, -6170, -858, -1552
3030, -14200, -2075, -3611, -6761, -1241, -1889
3040, -14169, -2084, -3402, -7076, -1413, -2084
3050, -14413, -1963, -3144, -7233, -1519, -2249
3060, -14924, -1560, -2172, -6899, -2084, -2120
3070, -15148, -1478, -1916, -6390, -2327, -2041
3080, -15493, -1439, -1790, -5991, -2363, -2123
3090, -15901, -1393, -1731, -5831, -2329, -2217
3100, -16428, -1098, -1327, -5985, -2793, -2247
3110, -16624, -772, -1232, -5960, -3171, -2162
3120, -16591, 178, -1660, -5650, -3442, -1862
3130, -16334, 306, -1922, -5592, -3497, -1849
3140, -16132, -135, -2210, -5563, -3680, -1944
3150, -16063, -1712, -2593, -5269, -4541, -1967
3160, -16202, -2398, -2813, -5013, -4770, -1895
3170, -16518, -2857, -3069, -4812, -4703, -1882
3180, -17613, -3134, -3324, -4793, -3946, -1990
3190, -18086, -3020, -3042, -4941, -3576, -1982
3200, -18364, -2815, -2469, -5011, -3557, -1883
3210, -18074, -2263, -970, -4479, -4538, -1378
3220, -17578, -2020, -381, -3847, -5280, -1037
3230, -17304, -1769, -39, -3181, -5966, -783
3240, -17317, -453, -575, -2615, -6391, -557
3250, -18810, 567, -1313, -2351, -5097, 388
3260, -20618, 1414, -2443, -2565, -3434, 1044
3270, -22481, 1930, -3840, -2811, -2143, 1684
3280, -23782, 1574, -6481, -3314, -1678, 1660
3290, -21315, 425, -6592, -3786, -2766, 840
3300, -17636, -726, -5763, -4507, -4174, 161
3310, -11485, -1451, -4883, -6489, -4602, -633
3320, -9926, -1455, -5014, -7949, -3547, -886
3330, -11062, -2163, -5397, -10051, -2029, -1282
3340, -13419, -3019, -5486, -9791, -3739, -1396
3350, -16364, -3485, -5300, -8824, -5467, -1464
3360, -18862, -2085, -4587, -7802, -5321, -1246
3370, -20091, -1320, -3495, -7612, -2407, -585
3380, -19465, -481, -2383, -7978, -1424, -630
3390, -18300, 137, -1584, -8389, -876, -789
3400, -15975, 429, -1423, -9655, -939, -1166
3410, -15196, -81, -1653, -10489, -1364, -1306
3420, -14919, -886, -2267, -11048, -1823, -1555
3430, -15060, -1722, -3323, -11312, -2179, -1932
3440, -15161, -2596, -4819, -11828, -2664, -2546
3450, -14927, -2822, -5405, -12205, -3028, -2801
3460, -14684, -2909, -5512, -12977, -3067, -3082
3470, -14541, -2658, -4368, -14719, -3397, -3497
3480, -14637, -2189, -3661, -15263, -3794, -3480
3490, -14953, -1704, -3094, -15623, -3843, -3401
3500, -16409, -664, -2372, -16406, -3518, -3519
3510, -17098, -100, -2185, -16917, -3943, -3733
3520, -17462, 307, -1940, -17477, -4515, -3926
3530, -17511, 454, -1823, -17734, -4770, -3963
3540, -17099, 15, -2427, -16889, -4175, -3675
3550, -15205, -2818, -5689, -14968, -2693, -2995
3560, -13821, -3693, -6134, -15564, -2958, -3074
3570, -13338, -4131, -5787, -16004, -3434, -3411
3580, -13257, -4353, -5213, -16322, -3677, -3656
3590, -13785, -4445, -3783, -16189, -3007, -3350
3600, -14101, -4090, -3303, -15656, -2428, -2838
3610, -14356, -3907, -2897, -14964, -2001, -2403
3620, -14495, -4089, -2632, -14249, -1716, -2118
3630, -14075, -4713, -2540, -12995, -1188, -1646
3640, -13597, -4461, -2501, -12569, -1166, -1319
3650, -13544, -3980, -2328, -12350, -1440, -1083
3660, -14103, -3496, -2027, -11941, -2166, -525
3670, -14885, -3782, -1916, -12070, -2690, -571
3680, -15741, -3936, -1411, -12683, -3617, -556
3690, -16919, -2240, 715, -13976, -6181, 130
3700, -17112, -853, 2019, -13986, -6930, 300
3710, -17422, 90, 2991, -13378, -6647, 41
3720, -17835, 143, 3362, -12323, -5312, -424
3730, -18460, -1661, 1917, -10229, -911, -829
3740, -18423, -2502, 854, -9817, 43, -816
3750, -18256, -2809, 415, -9886, -799, -980
3760, -17608, -1966, 1615, -10458, -3414, -1176
3770, -17609, -1309, 2282, -10631, -4221, -1129
3780, -18165, 226, 3040, -10905, -5523, -747
3790, -18569, 808, 3272, -11017, -6124, -533
3800, -18712, 1055, 3359, -10814, -6422, -163
3810, -19248, -653, 2495, -10126, -5106, 33
3820, -20522, -2334, 1185, -7480, -2917, -682
3830, -22354, -3594, -977, -5755, -161, -1279
3840, -23261, -3547, -3729, -4215, 2141, -866
3850, -17590, -43, -7115, -3544, 1059, 2806
3860, -12868, 27, -7690, -4115, -864, 4034
3870, -9562, -1351, -8570, -4980, -1889, 3772
3880, -11899, -5204, -9355, -8645, -2550, 396
3890, -12643, -5590, -9168, -10751, -1990, -224
3900, -12788, -4847, -8728, -12781, -676, -641
3910, -13356, -3445, -7711, -14903, 223, -1369
3920, -15927, -782, -2573, -18229, -1047, -2916
3930, -17852, -339, -229, -17084, -1425, -2827
3940, -19072, 302, 403, -13566, -588, -1577
3950, -16770, 1441, -3183, -5922, 2351, 1698
3960, -15361, 1232, -4587, -4924, 2263, 1902
3970, -14642, 496, -5306, -5530, 1072, 1315
3980, -14619, -564, -5824, -6962, -17, 465
3990, -14847, -3153, -5682, -10435, -589, -756
4000, -15029, -3875, -5491, -11661, -348, -1205
4010, -14995, -3479, -4685, -12927, 570, -1526
4020, -14908, -2865, -4037, -12693, 713, -1468
4030, -15005, -2385, -3423, -12030, 457, -1355
4040, -15429, -2165, -2283, -10630, -207, -944
4050, -15632, -2156, -1831, -10020, -495, -714
4060, -15972, -1884, -1538, -9431, -619, -583
4070, -16212, -1550, -1257, -8893, -558, -474
4080, -16269, -723, -956, -8046, 40, -343
4090, -15974, -383, -969, -7789, 333, -368
4100, -15616, -97, -1082, -7623, 418, -451
4110, -15125, 30, -1839, -7481, 228, -542
4120, -14697, 22, -2279, -7159, -407, -784
4130, -14394, -105, -2685, -7050, -610, -842
4140, -14217, -286, -3071, -6909, -812, -907
4150, -13605, -535, -2961, -6555, -1170, -864
4160, -13357, -595, -2747, -6169, -1209, -790
4170, -13220, -602, -2492, -5728, -940, -689
4180, -13328, -672, -2037, -4822, -296, -434
4190, -13644, -899, -1698, -4539, 58, -418
4200, -14231, -1298, -1313, -4270, 493, -589
4210, -15584, -2174, -555, -3625, 942, -1107
4220, -16123, -2521, 0, -3300, 801, -1378
4230, -16454, -2649, 678, -2952, 581, -1560
4240, -16899, -2491, 1651, -1866, 10, -1772
4250, -17126, -2068, 1551, -1260, -293, -1753
4260, -17268, -1566, 941, -810, -445, -1607
4270, -17520, -1027, -863, -517, -268, -1244
4280, -17730, -1242, -1424, -414, -451, -1045
4290, -17990, -1798, -1404, -53, -819, -821
4300, -18448, -2284, -1229, 775, -1023, -570
4310, -19647, -2020, -1307, 3044, -750, 4
4320, -20118, -1018, -1332, 3603, -570, 362
4330, -20133, 180, -1083, 3650, -509, 668
4340, -20119, 1936, -567, 3358, -948, 497
4350, -19961, 1895, -381, 3394, -1522, 367
4360, -19341, 1082, -182, 3659, -2170, 475
4370, -18325, -1343, -71, 4170, -2681, 576
4380, -18731, -2134, -709, 5491, -2850, 561
4390, -19962, -2615, -1927, 5842, -2608, 791
4400, -21484, -3144, -3317, 5922, -2450, 1273
4410, -22500, -4320, -6293, 5638, -2369, 2471
4420, -20988, -4802, -6891, 5210, -2411, 2274
4430, -18715, -4987, -6304, 4888, -2046, 1272
4440, -12889, -3592, -6863, 5672, 1193, -1449
4450, -12710, -4955, -6649, 5751, 988, -1940
4460, -12930, -6600, -6568, 6159, 334, -2316
4470, -14463, -9319, -6726, 6755, -768, -2278
4480, -15404, -9321, -6570, 6562, -923, -1924
4490, -16225, -7897, -6135, 6293, -1068, -1605
4500, -16122, -5091, -4112, 6024, -1049, -1408
4510, -15438, -4275, -2873, 6294, -618, -1495
4520, -14825, -3888, -1841, 6801, -355, -1508
4530, -14278, -3726, -1276, 7383, -222, -1456
4540, -14195, -4080, -1213, 7951, 742, -1404
4550, -14356, -4234, -1787, 7956, 914, -1300
4560, -14391, -4309, -2345, 7709, 859, -1118
4570, -14358, -4277, -2648, 7411, 885, -943
4580, -14115, -3770, -3319, 7476, 768, -747
4590, -13953, -3502, -3532, 7344, 940, -686
4600, -13807, -3367, -3487, 6935, 1455, -723
4610, -14175, -3715, -2785, 5994, 1516, -1144
4620, -14573, -3909, -2259, 5515, 1161, -1339
4630, -14938, -4143, -1506, 5130, 944, -1477
4640, -15154, -4054, -302, 5297, 888, -1455
4650, -14965, -4088, 25, 5686, 728, -1483
4660, -14647, -4172, 210, 6134, 546, -1555
4670, -14169, -4610, 85, 6936, 1276, -1628
4680, -14191, -4640, -138, 7376, 1901, -1523
4690, -14233, -4563, -492, 7741, 2101, -1295
4700, -14218, -4127, -1008, 7924, 1647, -441
4710, -14104, -3706, -1121, 7827, 1265, 113
4720, -13978, -3413, -1135, 7652, 934, 603
4730, -13897, -3156, -1020, 7251, 297, 1310
4740, -13754, -3160, -970, 7126, 80, 1677
4750, -13824, -3230, -1019, 6971, 59, 1926
4760, -13990, -3355, -1017, 6696, 15, 2104
4770, -14307, -3330, -440, 5949, -926, 2418
4780, -14492, -3345, -4, 5623, -1681, 2504
4790, -14713, -3380, 579, 5314, -2340, 2568
4800, -15177, -3023, 1727, 4946, -2871, 2822
4810, -15350, -2543, 2264, 5015, -2844, 3079
4820, -15439, -2094, 2651, 5211, -2494, 3406
4830, -15741, -2024, 2869, 5440, -1843, 3510
4840, -17061, -2861, 2488, 5802, -219, 3225
4850, -17657, -3564, 1803, 5938, 149, 3223
4860, -18151, -4500, 1060, 6013, 51, 3169
4870, -19299, -6756, -526, 6264, -101, 2241
4880, -19566, -7255, -1045, 5780, 94, 1970
4890, -19287, -6957, -531, 4582, 144, 1933
4900, -19125, -4248, 1941, 2089, -376, 1497
4910, -19565, -2759, 3233, 1311, -624, 1129
4920, -20061, -1718, 4267, 688, -979, 805
4930, -19587, -911, 5248, -543, -2492, 500
4940, -18597, -1399, 5072, -1201, -3800, 350
4950, -17577, -2261, 4701, -1712, -5036, 216
4960, -17619, -5633, 2740, -884, -5091, 84
4970, -18009, -7930, 1407, 413, -3944, 216
4980, -17584, -9198, -385, 2377, -2873, 671
4990, -16843, -9863, -2340, 4509, -2058, 1053
5000, -15480, -10610, -5973, 7020, -316, 1155
5010, -15054, -10728, -7312, 7207, 1143, 827
5020, -15113, -10189, -8157, 6871, 3057, 228
5030, -16365, -4067, -7250, 6051, 6096, -309
5040, -15707, -288, -5696, 5978, 5729, 416
5050, -15474, 2368, -4189, 6127, 3792, 877
5060, -17138, 1517, -2791, 6603, 1161, 814
5070, -17679, -1126, -3170, 7871, -1707, 606
5080, -17357, -3714, -4054, 7915, -1933, 863
5090, -16837, -5642, -4891, 7311, -1910, 1149
5100, -16255, -7025, -4400, 4742, -1205, 996
5110, -16144, -5822, -3222, 3876, -877, 840
5120, -15914, -4613, -1956, 3965, -772, 947
5130, -14999, -3150, -201, 5810, -553, 1505
5140, -15001, -3022, 23, 6817, -134, 1516
5150, -14959, -3388, -708, 8132, 903, 1372
5160, -14738, -3483, -1126, 8196, 1118, 1284
5170, -14469, -3257, -1318, 7967, 975, 1210
5180, -14285, -2737, -1228, 7682, 477, 1094
5190, -14370, -1691, -1165, 7556, -90, 997
5200, -14714, -1472, -1315, 7861, 48, 903
5210, -15082, -1276, -1584, 8241, 487, 1012
5220, -15277, -1271, -1968, 8641, 817, 1204
5230, -15313, -1601, -2684, 8979, 1127, 1298
5240, -14811, -1857, -2729, 8741, 1167, 1231
5250, -14471, -2164, -2604, 8238, 1278, 1060
5260, -13885, -2173, -1937, 7063, 1421, 714
5270, -13692, -2088, -1351, 6584, 1237, 571
5280, -13748, -2078, -829, 6372, 857, 354
5290, -14212, -2231, 180, 6326, 952, -23
5300, -14380, -2151, 684, 6469, 1259, -143
5310, -14381, -1922, 1159, 6713, 1469, -168
5320, -14362, -1609, 1486, 7041, 1610, -180
5330, -13973, -843, 1528, 7483, 1835, -201
5340, -13921, -495, 1101, 7302, 2001, -298
5350, -13833, -184, 677, 6715, 2140, -391
5360, -13528, 23, 495, 4982, 1447, -620
5370, -14356, 481, 614, 3871, 1989, -869
5380, -15271, 758, 192, 4017, 2491, -772
5390, -16828, 11, -1330, 4279, 2839, -494
5400, -17476, -1348, -1841, 4052, 2873, -476
5410, -17901, -2575, -1662, 3583, 2503, -542
5420, -18197, -3141, -1145, 3082, 2243, -664
5430, -19274, -1848, -318, 2100, 2843, -882
5440, -20031, -1316, 99, 1676, 2942, -752
5450, -20948, -1518, 537, 1404, 2902, -573
5460, -21991, -2969, 2078, 1353, 3066, -230
5470, -21964, -3573, 3193, 1637, 3414, -184
5480, -21683, -3727, 4082, 2050, 3911, -97
5490, -21782, -3451, 4386, 2537, 4062, 5
5500, -24881, -2061, 1072, 3787, 1110, 391
5510, -27404, -2267, -1844, 4252, -1304, 937
5520, -28496, -2833, -4370, 4240, -4068, 2016
5530, -23121, -3801, -6287, 2271, -6985, 3711
5540, -20171, -4343, -6340, 1336, -5670, 2450
5550, -17190, -4273, -6132, 1174, -3931, 1271
5560, -11307, -2891, -5828, 2388, -646, 513
5570, -9164, -2391, -5800, 2772, 1172, 138
5580, -10429, -4163, -6533, 3000, 791, -1604
5590, -12526, -5770, -6988, 3060, -1996, -1869
5600, -16122, -7423, -6588, 2944, -4498, -1574
5610, -17120, -7050, -5600, 3088, -3738, -1364
5620, -17039, -6207, -4012, 3515, -2832, -1027
5630, -15381, -4183, -2080, 4948, -2192, -634
5640, -14555, -3504, -1668, 4977, -1607, -604
5650, -14372, -3223, -1464, 4424, -745, -772
5660, -14691, -3248, -1581, 3515, -101, -950
5670, -15189, -3243, -1449, 1599, -604, -927
5680, -15358, -2674, -1418, 1272, -1143, -951
5690, -15276, -1975, -1617, 1212, -1257, -902
5700, -14686, -1496, -2344, 836, 63, -868
5710, -14181, -1938, -2460, 610, 515, -940
5720, -13760, -2675, -2416, 599, 233, -1145
5730, -13453, -3537, -1913, 660, -1745, -1540
5740, -13484, -3554, -1561, 473, -2369, -1640
5750, -13561, -3537, -1266, 159, -2367, -1698
5760, -14030, -3188, -652, -386, -1541, -1795
5770, -14188, -2933, -568, -468, -1453, -1796
5780, -14358, -2584, -350, -589, -1434, -1859
5790, -14393, -2231, 121, -693, -1566, -2003
5800, -14294, -2379, 245, -651, -1837, -2095
5810, -14241, -2682, 188, -380, -1468, -2088
5820, -14195, -2991, -56, -26, -838, -1957
5830, -14387, -3220, -661, 219, -89, -1257
5840, -14495, -3027, -650, -18, -435, -787
5850, -14344, -1913, -263, -480, -1829, 155
5860, -14237, -1558, 5, -814, -2346, 448
5870, -14096, -1387, 410, -1221, -2791, 696
5880, -13693, -1566, 1087, -1721, -3056, 1048
5890, -13622, -1855, 1285, -1667, -2821, 1081
5900, -13749, -2053, 1323, -1479, -2350, 1124
5910, -13972, -2233, 1301, -1253, -1798, 1201
5920, -14847, -2918, 1437, -961, -1043, 1265
5930, -15377, -3408, 1558, -858, -689, 1211
5940, -15971, -3964, 1710, -897, -125, 1141
5950, -17087, -5352, 1649, -1099, 1119, 702
5960, -17880, -5613, 1517, -1889, 912, 164
5970, -18782, -4948, 1494, -2287, 246, -361
5980, -19605, -3976, 1397, -2215, 27, -609
5990, -21445, -4038, 132, -683, 1160, -570
6000, -21598, -4579, 582, -671, 1263, -592
6010, -21180, -4575, 1540, -1263, 1372, -739
6020, -19786, -2089, 4203, -3173, 487, -886
6030, -19413, -1215, 5264, -3802, -1308, -889
6040, -19527, -1149, 5457, -4277, -3438, -1092
6050, -21264, -2825, 3020, -4772, -5351, -2411
6060, -22345, -4100, 2066, -6152, -6787, -3928
6070, -23500, -5332, 1577, -5825, -5995, -5865
6080, -23446, -6177, -1889, 354, 2202, -5914
6090, -20090, -5000, -5591, 4433, 6592, -2727
6100, -15781, -3823, -8833, 7052, 7665, 269
6110, -8384, -2742, -10895, 6580, 2415, 3028
6120, -5973, -2805, -10117, 4418, 375, 3289
6130, -7115, -3761, -8627, 2185, -818, 2030
6140, -9680, -5612, -8761, 937, -1542, 706
6150, -13670, -6228, -9452, -554, -369, 16
6160, -16294, -5793, -9414, -2211, 839, -881
6170, -19203, -3888, -7744, -4717, 767, -1812
6180, -21770, 925, -1208, -7252, -2423, -1911
6190, -20690, 2126, 1496, -5733, -2516, -881
6200, -18359, 2044, 2529, -2998, -1644, 531
6210, -14370, 33, 241, 2216, 529, 2206
6220, -13807, -1299, -1499, 3175, 1558, 2265
6230, -13726, -2710, -2688, 2895, 1577, 1938
6240, -13753, -3852, -3313, 1775, 860, 1408
6250, -14057, -4366, -3740, -1626, 176, 28
6260, -14421, -3688, -3258, -3167, 635, -448
6270, -14670, -2859, -2592, -3797, 939, -545
6280, -14850, -1431, -1699, -2423, 441, 153
6290, -15262, -866, -1983, 632, 126, 589
6300, -15458, -1230, -1693, -114, -342, 274
6310, -15325, -1512, -1139, -601, -800, 65
6320, -15160, -1776, -636, -784, -1319, -144
6330, -14841, -1983, -230, -721, -1454, -223
6340, -14222, -2190, 232, -213, -893, -361
6350, -13951, -2111, 247, 90, -767, -373
6360, -13810, -1891, 101, 303, -900, -392
6370, -13635, -1347, -206, 178, -726, -537
6380, -13764, -1163, -167, -7, -586, -638
6390, -13949, -966, 19, 45, -771, -730
6400, -14397, -823, 149, 327, -1046, -786
6410, -14609, -831, 70, 976, -959, -895
6420, -14848, -808, -4, 1086, -784, -950
6430, -15151, -701, -131, 1069, -627, -1014
6440, -15674, -90, -729, 670, -273, -1065
6450, -15929, 250, -1221, 272, -474, -1082
6460, -16102, 442, -1673, -282, -907, -1102
6470, -16725, -309, -2081, -1504, -1713, -1147
6480, -17409, -1506, -2025, -1833, -1792, -1105
6490, -17953, -2618, -1887, -1780, -1630, -899
6500, -18385, -3202, -1734, -1391, -1341, -726
6510, -19696, -1600, -1190, -369, -390, -499
6520, -20291, -764, -648, -62, 106, -250
6530, -20872, -1201, 1250, 565, 841, 82
6540, -20660, -1899, 2416, 1144, 1349, 34
6550, -20063, -2204, 3439, 1771, 1833, 50
6560, -19639, -1479, 4380, 2742, 1864, 229
6570, -20804, -339, 3178, 3188, 781, 222
6580, -22477, 844, 788, 3513, -970, 510
6590, -23750, 1582, -1916, 3512, -3257, 1133
6600, -22637, -362, -4883, 1947, -7313, 2336
6610, -21028, -2355, -5568, 1033, -7885, 2294
6620, -19401, -3659, -6111, 580, -7754, 1850
6630, -15399, -3627, -7158, 555, -5558, 1129
6640, -13231, -3144, -7457, 298, -3746, 923
6650, -11404, -2907, -7633, -346, -1861, 717
6660, -9989, -3179, -7261, -1178, -305, 287
6670, -12167, -5599, -4790, -1654, 322, -559
6680, -14692, -5495, -4054, -77, -3298, -1444
6690, -16835, -4368, -3464, 820, -4262, -1104
6700, -17936, -3113, -2697, 1178, -3225, -627
6710, -17890, -1281, -1303, 1124, 737, -60
6720, -17343, -781, -677, 973, 964, 98
6730, -16773, -608, -336, 841, -240, 168
6740, -15543, -1163, -362, -447, -2691, 58
6750, -15156, -1684, -845, -1737, -2775, -145
6760, -14906, -1728, -2339, -3204, -2590, -399
6770, -14769, -1219, -2879, -5708, -1816, -1023
6780, -14519, -1139, -3010, -6316, -1519, -1275
6790, -14253, -1341, -3128, -6368, -1372, -1477
6800, -13842, -2227, -3488, -5797, -1036, -1669
6810, -13777, -2786, -3615, -5912, -947, -1708
6820, -13667, -3139, -3443, -6401, -914, -1761
6830, -14067, -3418, -2356, -7576, -872, -1855
6840, -14293, -3160, -1719, -7764, -1040, -1811
6850, -14661, -2881, -1203, -7681, -1360, -1756
6860, -14961, -2612, -854, -7643, -1700, -1710
6870, -15661, -2214, -247, -8346, -1975, -1973
6880, -15739, -1847, 64, -8811, -2196, -2071
6890, -15505, -1247, 90, -9042, -2390, -2088
6900, -15062, -474, -325, -9223, -2353, -1997
6910, -15103, -228, -563, -9330, -2422, -1910
6920, -15298, 80, -803, -9509, -2539, -1792
6930, -15705, 136, -1117, -9776, -2596, -1518
6940, -15854, -33, -1092, -10444, -2772, -1430
6950, -15872, -429, -992, -10609, -2866, -1290
6960, -15649, -1149, -1037, -10363, -2777, -1050
6970, -13913, -2595, -1679, -9040, -2279, -3
6980, -13055, -3182, -1890, -8495, -1921, 317
6990, -12511, -4031, -1888, -7852, -872, 237
7000, -12991, -4548, -1793, -7656, -451, -52
7010, -13632, -4902, -1469, -7595, -388, -390
7020, -14717, -4461, -9, -8256, -376, -513
7030, -15317, -4061, 1167, -8920, -426, -514
7040, -16143, -3798, 2483, -9425, -537, -704
7050, -17196, -3654, 3813, -9542, -358, -971
7060, -18873, -3123, 5249, -8048, 1243, -1118
7070, -19131, -2640, 4691, -6480, 1823, -950
7080, -19066, -2130, 3003, -4893, 1393, -822
7090, -18984, -2566, -260, -4283, -1280, -992
7100, -19014, -3303, -684, -5113, -1857, -1198
7110, -19223, -3767, -403, -5838, -1535, -1482
7120, -19623, -3087, 1814, -6940, -1257, -2031
7130, -19834, -1764, 3246, -7607, -1309, -2310
7140, -20010, -201, 4522, -8355, -1640, -2540
7150, -20647, 2274, 6536, -10055, -4523, -2785
7160, -20793, 2401, 7143, -10780, -6626, -2697
7170, -20726, 1940, 6949, -10876, -8164, -2542
7180, -21601, 193, 4556, -9902, -8943, -3537
7190, -22465, -1568, 3558, -9057, -8169, -4908
7200, -12327, -925, -10275, 3877, 2246, 2745
7210, -7652, -707, -12866, 2361, 768, 3916
7220, -4712, -1672, -13954, -1048, -494, 3465
7230, -8491, -5508, -12308, -8198, -2187, -1369
7240, -10511, -5688, -12151, -10513, -1467, -2331
7250, -12259, -4867, -11935, -12805, -193, -2563
7260, -17862, -1038, -7513, -15537, 475, -3910
7270, -21493, 865, -3400, -19674, -459, -4903
7280, -24754, 1652, 471, -18767, -724, -4977
7290, -24380, 2157, 2359, -15204, 207, -2781
7300, -16923, 1847, 371, -7713, 2406, 1931
7310, -14320, 943, -1875, -5985, 3248, 2713
7320, -13523, -522, -4510, -5492, 4137, 2491
7330, -14720, -3340, -7543, -8293, 3902, 731
7340, -15339, -3818, -7559, -10617, 3114, -76
7350, -15374, -3709, -6907, -12643, 2541, -627
7360, -14260, -3454, -5220, -14107, 3163, -1174
7370, -13712, -3682, -4572, -14047, 3454, -1381
7380, -13375, -3876, -4047, -13952, 3140, -1588
7390, -13518, -3918, -3450, -14004, 2344, -1810
7400, -14652, -3082, -2378, -14093, 378, -1850
7410, -15557, -2302, -1753, -13719, -292, -1517
7420, -16980, -663, -1378, -11812, 155, -774
7430, -17333, -101, -1334, -10852, 924, -746
7440, -17225, 280, -1618, -10128, 1304, -865
7450, -15536, -21, -1961, -9942, 742, -1369
7460, -14781, -607, -1928, -10164, 3, -1667
7470, -14254, -1156, -1980, -10193, -853, -1796
7480, -13370, -1707, -2042, -9562, -2118, -1637
7490, -12984, -1785, -2024, -8891, -2340, -1494
7500, -12672, -1859, -1902, -8130, -2482, -1399
7510, -12445, -1773, -1676, -6729, -2290, -1326
7520, -12608, -1635, -1440, -6210, -2130, -1354
7530, -13018, -1493, -1119, -5791, -1920, -1467
7540, -14209, -1448, -671, -5347, -1052, -1813
7550, -14634, -1444, -573, -4419, -1183, -1961
7560, -15031, -1450, -365, -4061, -1337, -2121
7570, -15465, -1449, -176, -3759, -1664, -2286
7580, -16326, -1671, -22, -3238, -2268, -2586
7590, -16997, -1889, -152, -2976, -2418, -2724
7600, -17736, -2090, -475, -2657, -2572, -2773
7610, -19139, -2062, -1797, -2064, -3367, -2445
7620, -19671, -1995, -2440, -1998, -3868, -2174
7630, -20047, -1860, -2797, -2077, -4012, -1811
7640, -20325, -1890, -2567, -1818, -4075, -1120
7650, -20369, -1702, -2278, -1128, -4370, -864
7660, -20343, -1567, -1924, -263, -4407, -647
7670, -20063, -1497, -927, 1284, -4143, -359
7680, -19996, -1421, -304, 1689, -4199, -371
7690, -20111, -1190, 269, 1863, -4213, -501
7700, -21232, 319, 223, 1428, -3026, -299
7710, -22371, 977, -944, 1025, -2103, 117
7720, -23193, 848, -2992, 660, -1738, 671
7730, -23146, 96, -5141, 212, -1992, 1074
7740, -20389, -1552, -7107, -1046, -2516, 719
7750, -18180, -1659, -7070, -1244, -2353, -26
7760, -15881, -1074, -7017, -1280, -1758, -577
7770, -11360, 63, -6702, -2461, 449, -524
7780, -9851, -212, -6435, -3316, 1627, -521
7790, -9609, -1475, -5659, -3768, 1745, -1029
7800, -11311, -3638, -4709, -3250, -717, -2026
7810, -16987, -5382, -4006, -999, -7987, -2555
7820, -19276, -4667, -3604, -618, -8213, -2271
7830, -20334, -3836, -3022, -919, -6305, -1803
7840, -19024, -2119, -2532, -2893, -1807, -1005
7850, -17544, -1300, -2204, -4326, -1574, -843
7860, -16260, -720, -1736, -5617, -2481, -821
7870, -14679, -416, -2011, -6918, -3451, -908
7880, -14532, -439, -2733, -7211, -3083, -999
7890, -14480, -414, -3384, -7484, -2700, -1035
7900, -14154, -747, -3871, -7821, -3276, -1077
7910, -13894, -1392, -3419, -7981, -4035, -1226
7920, -13889, -2162, -2866, -8130, -4619, -1480
7930, -14348, -3400, -1767, -9017, -5354, -2027
7940, -14678, -3343, -1233, -9816, -5696, -2210
7950, -14850, -3059, -682, -10547, -5663, -2212
7960, -15012, -2291, -350, -10953, -5262, -2124
7970, -15378, -1826, -859, -10588, -3937, -2081
7980, -15443, -1717, -1346, -10546, -3366, -2153
7990, -15433, -1754, -1618, -10751, -3055, -2234
8000, -15714, -1577, -1987, -11238, -2848, -2560
8010, -15852, -1380, -2042, -11274, -2828, -2604
8020, -15997, -1168, -2040, -11167, -2906, -2595
8030, -15948, -1477, -2169, -10556, -3090, -2425
8040, -15669, -1834, -2218, -10260, -3065, -2076
8050, -15152, -2348, -2352, -9966, -2945, -1636
8060, -14334, -2844, -2841, -9733, -2854, -1265
8070, -12775, -3721, -3375, -10143, -3047, -912
8080, -12746, -3688, -952, -10581, -4079, -206
8090, -13290, -3930, -286, -10169, -4172, 114
8100, -13720, -4068, 192, -9619, -4219, 537
8110, -14366, -4211, 955, -8728, -4380, 989
8120, -14869, -4150, 1496, -8479, -4278, 889
8130, -15464, -4123, 2016, -8309, -3656, 551
8140, -17163, -3889, 3094, -8817, -1130, -308
8150, -17576, -3369, 4041, -9247, -141, -279
8160, -17574, -2657, 5002, -9224, 349, -158
8170, -17603, -1907, 5449, -8432, 432, -98
8180, -17213, -2598, 2627, -4670, 18, 68
8190, -17989, -3879, 377, -3064, 365, -383
8200, -19500, -4980, -1505, -2605, 1319, -1016
8210, -21083, -6418, -571, -5252, 1166, -1691
8220, -20571, -5127, 1742, -6536, -668, -1833
8230, -19360, -2630, 4104, -7268, -2399, -1505
8240, -17701, 1005, 7765, -7665, -4015, -407
8250, -18809, 1122, 8307, -7607, -4633, -651
8260, -20662, 82, 7282, -7388, -5892, -1287
8270, -21915, -1184, 5701, -7547, -7203, -1878
8280, -23733, -3581, 3825, -6845, -6420, -3881
8290, -23978, -3511, 2403, -4078, -3528, -3873
8300, -22403, -1624, -658, -7, -66, -1929
8310, -15481, 1727, -7430, 4492, 1935, 2629
8320, -11496, 1322, -9468, 3790, 799, 3974
8330, -8143, -512, -10949, 2067, -175, 4170
8340, -8633, -5631, -13528, -2657, -843, 290
8350, -9957, -6576, -14104, -5752, -45, -999
8360, -12747, -4853, -11316, -12754, 1882, -1947
8370, -15218, -2561, -8208, -15313, 640, -2490
8380, -21149, 1073, -1353, -15503, -2199, -2824
8390, -22828, 1868, 1288, -13424, -2411, -1957
8400, -22234, 2148, 3102, -11010, -2093, -284
8410, -17513, 2201, 1533, -5903, 1201, 2592
8420, -15686, 1632, -1055, -4501, 3049, 2969
8430, -15039, 700, -3386, -4639, 3702, 2649
8440, -15295, -401, -4877, -6121, 3224, 1893
8450, -16061, -2254, -4843, -10132, 1397, 395
8460, -15987, -2449, -4746, -10983, 1193, 118
8470, -15529, -2366, -4883, -11130, 1649, 121
8480, -14206, -2475, -4882, -11256, 3008, 232
8490, -13647, -2805, -4525, -11389, 2791, 114
8500, -13382, -3128, -4198, -11426, 2226, -45
8510, -13855, -3109, -3523, -11300, 1400, -515
8520, -14584, -2613, -2974, -11154, 1049, -625
8530, -15305, -1928, -2296, -10900, 544, -524
8540, -16390, -497, -1154, -9850, -558, -96
8550, -16353, -286, -706, -9319, -597, -88
8560, -16108, -239, -419, -8947, -314, -257
8570, -14824, -257, -388, -8673, -195, -526
8580, -14181, -185, -575, -8620, -519, -546
8590, -13804, -231, -834, -8522, -789, -543
8600, -13391, -618, -1432, -7609, -876, -403
8610, -13284, -807, -1719, -6949, -821, -379
8620, -13243, -912, -1893, -6385, -708, -412
8630, -13593, -975, -1345, -5864, -325, -789
8640, -14015, -1120, -826, -5596, -190, -1025
8650, -14540, -1356, -352, -5128, -149, -1238
8660, -15473, -1734, 69, -4520, -108, -1380
8670, -15782, -1883, 133, -3409, 198, -1692
8680, -16154, -1841, 99, -2997, 242, -1860
8690, -16451, -1664, -54, -2694, 113, -1951
8700, -17328, -1326, -946, -2420, -1034, -1963
8710, -17813, -1306, -1123, -2470, -2152, -1992
8720, -18570, -1370, -1103, -2499, -2981, -2019
8730, -20110, -1448, -1344, -2070, -3255, -1759
8740, -20935, -806, -1421, -1748, -2960, -1674
8750, -21433, 1345, -1549, -1384, -1961, -1220
8760, -20859, 2343, -1378, -1509, -1916, -1017
8770, -20454, 2912, -1157, -1754, -1898, -1068
8780, -19385, 1828, -188, -1916, -2105, -924
8790, -18615, 709, 464, -1562, -2376, -759
8800, -18231, -398, 1021, -1029, -2484, -697
8810, -18317, -938, 1317, -586, -2329, -584
8820, -19346, 282, 1159, -664, -1438, -37
8830, -20475, 908, 294, -787, -1210, 387
8840, -21461, 967, -1274, -636, -1992, 851
8850, -20217, -423, -4549, -716, -5124, 1465
8860, -19053, -1175, -5881, -1324, -5548, 1103
8870, -18032, -1641, -6993, -2034, -5125, 465
8880, -16857, -1840, -8078, -2773, -4131, 67
8890, -13871, -2813, -8999, -4727, -819, -361
8900, -12578, -4121, -8118, -5447, 758, -869
8910, -12542, -5755, -6533, -5126, 1119, -1548
8920, -13984, -7086, -5252, -1839, -1825, -1354
8930, -15256, -6440, -5316, -725, -2687, -982
8940, -16559, -4869, -5757, -378, -2645, -720
8950, -16697, -3122, -5998, -864, -1882, -468
8960, -16404, -1421, -4488, -3124, -370, -808
8970, -15905, -1577, -2726, -3714, -814, -969
8980, -14594, -2422, -268, -2119, -3439, -1267
8990, -14486, -2428, -888, -3519, -2066, -1559
9000, -14437, -2325, -1231, -5206, -1911, -1930
9010, -14217, -2050, -1087, -7491, -2995, -2436
9020, -14271, -2171, -926, -7743, -3115, -2550
9030, -14458, -2424, -735, -7572, -3083, -2631
9040, -14835, -2594, -497, -7296, -3012, -2705
9050, -15744, -2449, 141, -7269, -3588, -2936
9060, -16284, -2321, 815, -7518, -4050, -3252
9070, -16435, -2367, 1549, -7362, -4199, -3409
9080, -15546, -2690, 1416, -4889, -2566, -2916
9090, -15117, -2611, 546, -3507, -903, -2422
9100, -14559, -2395, -416, -2692, 805, -1818
9110, -14018, -2061, -1291, -2457, 1759, -1319
9120, -13563, -1828, -2174, -3114, 844, -1118
9130, -13458, -1725, -2353, -3696, -103, -1101
9140, -13564, -1778, -2048, -4334, -1141, -1162
9150, -13746, -1870, -872, -4875, -2632, -649
9160, -13936, -1840, -306, -4808, -3040, -274
9170, -14313, -2016, 161, -4653, -3309, 42
9180, -15019, -2659, 533, -4355, -3641, 582
9190, -15259, -2799, 675, -4111, -3695, 834
9200, -15397, -2719, 952, -4252, -3731, 1130
9210, -15399, -2360, 1977, -4438, -3512, 1409
9220, -15536, -2421, 2457, -4536, -3052, 1196
9230, -15847, -2648, 3031, -4804, -2445, 852
9240, -16481, -2810, 4147, -5403, -1311, 518
9250, -16840, -2691, 4014, -5187, -732, 417
9260, -17265, -2704, 2944, -4541, -365, 284
9270, -18234, -3892, -478, -2610, -139, 218
9280, -18898, -4952, -2111, -1665, 492, 52
9290, -19502, -5991, -3191, -1279, 1335, -277
9300, -19445, -5493, -157, -1878, 1183, -518
9310, -18751, -3390, 2673, -4275, -1202, -712
9320, -18449, -1387, 5215, -5535, -1365, -609
9330, -18760, -214, 7166, -6751, -1583, -578
9340, -21462, -2857, 7500, -7059, -5223, -1918
9350, -22807, -4732, 5157, -5568, -6346, -2973
9360, -24078, -5929, 2832, -3817, -5496, -4129
9370, -24044, -4863, -2814, 564, 1958, -3514
9380, -21943, -2567, -5707, 2239, 5053, -1690
9390, -19020, -263, -7618, 2925, 5046, 184
9400, -15157, 1326, -7996, 2511, 1862, 1795
9410, -11689, 1338, -5907, -708, -4607, 2278
9420, -13124, 594, -5603, -2009, -5211, 1622
9430, -14157, -720, -7219, -2646, -1403, 1038
9440, -14838, -950, -8568, -2985, 1465, 70
9450, -15018, -815, -8790, -4187, 3302, -384
9460, -14691, 871, -7025, -7029, 3480, 96
9470, -14812, 1426, -5883, -7928, 2461, 243
9480, -15090, 1470, -4561, -8487, 1073, 212
9490, -15250, 1279, -3288, -8546, -185, 218
9500, -15049, 851, -2057, -7255, -116, 536
9510, -14984, 567, -2367, -6652, 970, 629
9520, -15038, 423, -2719, -6685, 1887, 612
9530, -15502, 87, -3339, -8217, 2194, 277
9540, -16023, -387, -3626, -9208, 2095, -127
9550, -16188, -861, -3791, -10028, 1962, -406
9560, -15357, -978, -3860, -10573, 1787, -408
9570, -14628, -975, -3873, -10985, 1536, -172
9580, -14295, -807, -3885, -11043, 1397, -143
9590, -13977, -624, -3863, -11080, 1243, -131
9600, -14205, -184, -3482, -11082, 337, -272
9610, -14700, -48, -3261, -10910, 100, -417
9620, -15362, -31, -3112, -10614, 134, -551
9630, -16175, -193, -2704, -10273, 413, -531
9640, -16131, -269, -2222, -9583, 292, -505
9650, -15885, -416, -1702, -9166, -355, -528
9660, -15111, -855, -1144, -8477, -1491, -676
9670, -14715, -929, -917, -8385, -1236, -763
9680, -14383, -1148, -768, -8294, -757, -839
9690, -14216, -1796, -530, -7477, -593, -1094
9700, -14098, -1875, -386, -6786, -968, -1123
9710, -14030, -1879, -194, -6092, -1310, -1083
9720, -13988, -1610, 230, -4706, -1620, -940
9730, -14114, -1283, 262, -4009, -1603, -899
9740, -14328, -888, 196, -3435, -1513, -872
9750, -14903, -284, -88, -2760, -1349, -973
9760, -15151, -404, -106, -2628, -1388, -1129
9770, -15351, -819, 53, -2449, -1593, -1307
9780, -15587, -1398, 473, -2121, -1838, -1407
9790, -16373, -2687, 617, -968, -2241, -1542
9800, -17057, -2987, 710, -254, -2398, -1569
9810, -17895, -2850, 717, 429, -2366, -1557
9820, -19276, -975, -243, 1183, -2060, -1331
9830, -19598, 113, -1136, 880, -1832, -1257
9840, -19908, 796, -1576, 79, -1856, -1329
9850, -20472, 1697, -1219, -1037, -2820, -1419
9860, -20506, 2126, -880, -910, -2975, -1298
9870, -20645, 2583, -441, -513, -2422, -1164
9880, -19675, 281, 2278, 1691, 1102, 659
9890, -20220, 113, 2630, 1675, 1797, 951
9900, -21593, 428, 1894, 1730, 1816, 1204
9910, -22955, 404, -2212, 1309, -2382, 1652
9920, -21585, -720, -3196, 579, -4725, 1455
9930, -19502, -1622, -3864, 99, -5718, 909
9940, -14675, -1557, -5300, -205, -4976, 321
9950, -12504, -1361, -5960, -641, -3777, 220
9960, -11016, -1927, -6296, -1360, -1977, -149
9970, -12319, -4935, -5619, -1936, -197, -1353
9980, -14339, -5916, -5700, -615, -1362, -1450
9990, -16156, -5932, -6049, 526, -2816, -987
10000, -17449, -5154, -6399, 1117, -2918, -603
10010, -17965, -3151, -6176, 354, -55, -671
10020, -17414, -1971, -5529, -483, 1299, -648
10030, -16252, -1125, -4284, -1245, 1543, -521
10040, -14529, -1230, -1236, -1266, -650, -769
10050, -14483, -1618, -158, -570, -2064, -993
10060, -14911, -1891, 528, 70, -3195, -1116
10070, -15347, -2014, 845, 313, -3882, -1144
10080, -15723, -2262, 484, -1032, -3243, -1379
10090, -15520, -2462, 246, -2596, -2419, -1588
10100, -15324, -2462, 223, -4117, -2297, -1979
10110, -15130, -2300, 316, -5364, -3442, -2544
10120, -15047, -2444, 272, -5121, -3741, -2633
10130, -15203, -2694, 117, -4169, -2859, -2609
10140, -15317, -2557, 43, -3752, -2429, -2558
10150, -15407, -2550, 98, -3629, -2240, -2654
10160, -15273, -2811, 309, -3293, -1260, -2787
10170, -14873, -2832, 130, -2469, -152, -2467
10180, -14314, -2601, -450, -1586, 984, -2056
10190, -13770, -2310, -1040, -1024, 1818, -1684
10200, -13019, -1839, -1777, -964, 2026, -1049
10210, -12872, -1548, -1688, -1219, 1206, -794
10220, -13096, -1477, -1258, -1403, -20, -652
10230, -13694, -1543, -423, -1238, -1716, 21
10240, -13867, -1663, -3, -1301, -2281, 485
10250, -14121, -1699, 408, -1357, -2942, 992
10260, -14949, -1497, 946, -939, -3898, 2039
10270, -15174, -1391, 1267, -540, -4084, 2562
10280, -15377, -1348, 1608, -90, -3850, 2924
10290, -15609, -1472, 2013, 218, -2962, 2972
10300, -16426, -2849, 2977, 23, -199, 2382
10310, -16794, -3749, 3663, -272, 897, 2127
10320, -16959, -4370, 4074, -407, 1931, 1988
10330, -17324, -4573, 3853, -619, 3138, 1462
10340, -18087, -3717, 2919, -882, 2242, 980
10350, -20101, -1509, 1001, -1354, -870, 647
10360, -20934, -1408, 48, -812, -989, 767
10370, -21516, -2269, -976, 205, -109, 753
10380, -19834, -3882, 693, 882, 241, 877
10390, -18962, -3472, 2709, 295, 18, 897
10400, -18294, -2698, 4466, -574, 64, 979
10410, -19342, -2078, 5816, -2324, -1531, 324
10420, -21430, -2974, 4352, -3009, -3357, -303
10430, -23282, -3886, 2560, -3736, -5410, -1107
10440, -24167, -4723, 1218, -4209, -7066, -2051
10450, -22455, -3568, -1528, -2354, -5602, -2338
10460, -19616, -1792, -3532, -205, -3018, -1077
10470, -16412, -1047, -5414, 1907, -981, 389
10480, -11204, -1709, -8129, 3787, -288, 1814
10490, -9921, -2333, -7964, 2619, -1189, 1515
10500, -9634, -3051, -6278, 669, -2137, 893
10510, -12426, -3535, -3732, -1276, -2005, -379
10520, -14504, -2690, -3549, -1328, -1049, -669
10530, -16733, -1314, -3269, -1399, -312, -664
10540, -19679, 1160, -1326, -550, 175, 75
10550, -19187, 1097, -830, 1130, 352, 620
10560, -17752, 92, -1540, 2969, 435, 1067
10570, -14897, -1406, -3029, 3605, -170, 1365
10580, -14499, -1887, -3396, 2621, -361, 1139
10590, -14526, -2358, -3342, 1418, -473, 823
10600, -14311, -3097, -2671, -194, -1147, 339
10610, -14470, -3374, -2237, -528, -1218, 112
10620, -14678, -3566, -1698, -597, -864, 12
10630, -15141, -3130, -749, 573, 90, 368
10640, -15385, -2823, -514, 1674, 286, 541
10650, -15717, -2631, -261, 2813, 461, 649
10660, -16063, -2413, -182, 3945, 654, 703
10670, -16474, -2419, -532, 5901, 889, 764
10680, -16511, -2469, -799, 6580, 722, 712
10690, -16289, -2417, -1071, 6924, 514, 631
10700, -15499, -2451, -783, 7083, 323, 491
10710, -15186, -2605, -588, 7492, 120, 511
10720, -14908, -2947, -518, 8172, 29, 592
10730, -14846, -3393, -679, 9036, 278, 572
10740, -14531, -4020, -1303, 10519, 892, 434
10750, -14363, -4212, -1665, 10958, 822, 246
10760, -14275, -4303, -1893, 11138, 762, -47
10770, -14334, -4102, -1829, 11068, 881, -583
10780, -14528, -3753, -1590, 11234, 938, -802
10790, -14782, -2497, -1144, 13332, 1469, -992
10800, -14765, -2506, -1215, 13462, 1396, -993
10810, -14850, -2479, -1253, 13445, 1409, -1012
10820, -15270, -2231, -1253, 13430, 1456, -1156
10830, -15441, -1975, -1242, 13529, 1463, -1223
10840, -15542, -1723, -1212, 13652, 1478, -1248
10850, -15736, -1509, -1231, 13812, 1501, -1329
10860, -16021, -975, -1464, 14016, 1746, -1442
10870, -16084, -577, -1640, 13971, 1832, -1426
10880, -16287, -164, -1769, 13777, 1957, -1388
10890, -16482, 127, -1724, 13506, 2124, -1264
10900, -17060, 424, -699, 12965, 3380, -1043
10910, -17323, 785, -205, 12918, 4271, -964
10920, -17773, 1280, -16, 12980, 4897, -905
10930, -18872, 2358, -515, 13002, 4492, -631
10940, -19254, 2491, -967, 12595, 3668, -352
10950, -19186, 2052, -1109, 11863, 2759, -58
10960, -18954, 789, -776, 10495, 2188, 147
10970, -18638, 612, -465, 9871, 2397, 201
10980, -18150, 700, -26, 9592, 2660, 258
10990, -17598, 932, 407, 9487, 2808, 284
11000, -17427, 1115, 746, 9621, 2779, 298
11010, -17845, 846, 388, 9781, 2433, 447
11020, -19360, -480, -1410, 9632, 1407, 848
11030, -20527, -1377, -2334, 9186, 1045, 1008
11040, -21411, -2302, -2823, 8639, 761, 1205
11050, -20307, -4046, -2317, 7842, 759, 1717
11060, -18191, -4276, -1724, 7708, 911, 1929
11070, -15865, -4040, -1182, 7712, 980, 1869
11080, -14399, -3996, -1157, 7826, 985, 1397
11090, -14437, -4550, -2933, 8726, 177, -25
11100, -15831, -5261, -4001, 9373, -499, -474
11110, -16820, -6355, -4818, 9977, -934, -655
11120, -15594, -9312, -4917, 10793, -231, -592
11130, -14819, -10667, -4339, 10949, 851, -835
11140, -14341, -11492, -3497, 11031, 1890, -1068
11150, -14468, -11431, -2671, 11016, 2630, -1460
11160, -16927, -7684, -1328, 10544, 3298, -2860
11170, -16974, -5976, -815, 10428, 3272, -2898
11180, -16690, -4715, -873, 11255, 2365, -2738
11190, -15977, -4971, -1698, 11977, 1223, -2403
11200, -14187, -5494, -2844, 11982, -134, -2149
11210, -13677, -5266, -3034, 11699, 64, -2242
11220, -13391, -4946, -3087, 11762, 168, -2256
11230, -13337, -4893, -3222, 12060, 177, -2213
11240, -14127, -4976, -3133, 12395, 1011, -2215
11250, -14523, -5140, -2484, 12265, 1494, -2192
11260, -15051, -5078, -1035, 11928, 1715, -2184
11270, -15022, -4905, -337, 11610, 1626, -2114
11280, -14784, -4619, 140, 11274, 1162, -2037
11290, -14611, -4436, 65, 11016, 576, -1989
11300, -14579, -4133, 25, 10826, 309, -1844
11310, -14639, -3807, -204, 10829, 631, -1654
11320, -14786, -3595, -361, 10821, 983, -1423
11330, -14966, -3916, -396, 10596, 1085, -1086
11340, -14825, -4190, -295, 10303, 1047, -910
11350, -14671, -4362, -41, 9860, 896, -687
11360, -14194, -4273, 818, 9044, 247, -142
11370, -13975, -3847, 1236, 8673, 89, 112
11380, -14047, -3603, 1608, 8456, -162, 179
11390, -14257, -3183, 1605, 8450, 135, 744
11400, -14274, -2842, 1339, 8555, 450, 1110
11410, -14306, -2592, 1116, 8557, 753, 1493
11420, -14408, -2530, 1111, 8369, 1093, 1853
11430, -14660, -2501, 1623, 7665, 1535, 2385
11440, -14669, -2500, 1961, 7326, 1654, 2660
11450, -14656, -2526, 2283, 7030, 1774, 2874
11460, -14670, -2256, 2938, 6451, 2020, 3254
11470, -14733, -2039, 3188, 6168, 2135, 3438
11480, -14921, -2012, 3253, 5914, 2201, 3603
11490, -15605, -3510, 2458, 5476, 1564, 3924
11500, -15606, -4898, 2036, 4973, 885, 4018
11510, -15784, -5970, 1739, 4223, 571, 3762
11520, -16409, -5812, 1569, 3122, 896, 3040
11530, -16626, -5420, 1467, 2994, 1119, 2913
11540, -16983, -5197, 1500, 2947, 1366, 2782
11550, -18444, -4512, 1974, 2287, 2195, 2392
11560, -19288, -3973, 2394, 1706, 2364, 2204
11570, -19925, -3515, 3014, 988, 2191, 2028
11580, -20373, -3417, 3723, 227, 1671, 1814
11590, -19507, -3992, 4656, -1072, -136, 1345
11600, -18891, -4677, 4637, -1546, -1291, 888
11610, -18342, -5676, 4152, -1955, -2419, 419
11620, -18266, -8341, 1718, -2296, -3304, -8
11630, -18925, -9914, 563, -3165, -4083, -1369
11640, -19576, -10916, -209, -3240, -3971, -2218
11650, -20293, -11108, -812, -2690, -3035, -3057
11660, -20232, -8394, -1151, -43, 1232, -3339
11670, -18853, -6000, -1365, 1911, 2438, -2351
11680, -16666, -3883, -1385, 3643, 1478, -884
11690, -13413, -3689, -2706, 8111, -2014, 3045
11700, -13159, -5089, -4550, 9793, -2024, 3033
11710, -13356, -6517, -6622, 10679, -1459, 2641
11720, -14091, -7716, -8364, 10296, -540, 2080
11730, -17277, -6404, -7999, 7000, 2286, 613
11740, -17720, -4524, -6050, 5856, 2687, 493
11750, -16962, -2999, -4149, 5490, 1726, 804
11760, -16275, -2111, -1206, 5259, -83, 1042
11770, -16065, -2367, -198, 5543, -369, 1330
11780, -15978, -2915, 242, 6330, -418, 1610
11790, -15826, -3404, -12, 7387, -252, 1873
11800, -16048, -3847, -1318, 8727, 900, 2040
11810, -16003, -3787, -1724, 8595, 1414, 1854
11820, -15886, -3439, -1642, 8080, 1380, 1510
11830, -15205, -2396, -498, 7289, 208, 1305
11840, -14814, -2075, -98, 7588, 197, 1383
11850, -14750, -1914, -62, 8278, 700, 1418
11860, -14800, -1937, -233, 9159, 1132, 1531
11870, -15251, -1930, -1010, 10303, 1169, 1727
11880, -15609, -1763, -1376, 10155, 1175, 1683
11890, -15859, -1732, -1567, 9574, 1124, 1580
11900, -15884, -2074, -1342, 7968, 692, 1154
11910, -15806, -2021, -1090, 7329, 401, 985
11920, -15323, -1477, -669, 6506, 291, 1041
11930, -15110, -1241, -360, 6239, 271, 1072
11940, -14911, -1256, 15, 6130, 95, 1076
11950, -14795, -1678, 642, 6325, -238, 968
11960, -14735, -1799, 852, 6451, 30, 918
11970, -14712, -1922, 1122, 6610, 484, 852
11980, -14722, -2014, 1263, 6849, 624, 729
11990, -14661, -1646, 1199, 7053, 533, 586
12000, -14524, -1188, 979, 6927, 521, 549
12010, -14362, -713, 652, 6571, 511, 457
12020, -14526, -68, 515, 5269, 630, 20
12030, -14605, -27, 785, 4747, 626, -126
12040, -14487, -102, 1052, 4560, 487, -255
12050, -14519, -159, 1272, 4556, 566, -352
12060, -15026, -64, 1134, 4767, 1513, -416
12070, -15456, 155, 739, 4824, 1803, -425
12080, -15759, 503, 153, 4778, 1666, -371
12090, -16046, 746, -1247, 3986, 930, -107
12100, -16096, 174, -1651, 3288, 702, -51
12110, -16060, -647, -1648, 2536, 684, -12
12120, -16076, -1282, -1368, 2004, 843, -62
12130, -17745, -746, -968, 1591, 2232, -451
12140, -19334, -62, -1131, 1566, 3134, -414
12150, -21758, 57, 287, 1564, 3801, 128
12160, -21431, -1068, 1164, 1828, 4238, 396
12170, -20439, -2097, 1881, 2178, 4692, 590
12180, -18721, -3028, 3532, 2148, 3999, 699
12190, -18735, -2926, 4289, 1943, 3580, 563
12200, -19264, -2451, 4807, 2015, 2839, 421
12210, -20058, -1810, 4998, 2580, 1562, 387
12220, -20663, -1052, 3061, 4530, -1427, 1036
12230, -20658, -974, 1478, 5327, -2806, 1406
12240, -21227, -1595, -438, 5915, -4089, 1680
12250, -22459, -4514, -3796, 5975, -6363, 2259
12260, -21932, -5491, -5033, 5380, -7447, 2365
12270, -21038, -5759, -5713, 4573, -8148, 1851
12280, -19036, -5214, -5906, 3744, -7921, 1257
12290, -14679, -4446, -6172, 2612, -5407, 126
12300, -12933, -4501, -6414, 2233, -3569, -278
12310, -12291, -4650, -6818, 1941, -1392, -843
12320, -13970, -5524, -7716, 2105, 1526, -1615
12330, -15295, -6136, -8280, 3065, 1990, -1836
12340, -16175, -6471, -8887, 4061, 2734, -1549
12350, -16348, -5894, -8429, 4594, 3105, -808
12360, -15670, -5081, -4027, 6272, -302, 105
12370, -15420, -5298, -2377, 7741, -2810, 113
12380, -14469, -5637, -489, 8927, -3129, 34
12390, -14253, -5401, -149, 8502, -1303, -512
12400, -14601, -5042, -55, 7519, 1126, -1374
12410, -15333, -4556, -259, 6159, 3022, -2045
12420, -15592, -2613, -305, 3470, 1990, -1973
12430, -15268, -1760, 52, 2928, 425, -1731
12440, -14928, -1290, 17, 3241, -310, -1581
12450, -14283, -1948, -1010, 4638, 983, -1239
12460, -13927, -2403, -1534, 5236, 1276, -1032
12470, -13579, -2764, -2019, 5602, 1095, -905
12480, -13607, -2908, -2314, 4862, 215, -1197
12490, -13888, -2682, -2190, 3962, -97, -1410
12500, -14059, -2313, -1987, 2961, -358, -1573
12510, -14139, -1999, -1628, 1964, -545, -1710
12520, -14373, -1540, -613, 368, -536, -1986
12530, -14648, -1485, -111, -86, -720, -2204
12540, -14820, -1596, 404, -392, -1062, -2388
12550, -14727, -1788, 958, -412, -1381, -2363
12560, -13890, -2293, 1086, 508, -1299, -1877
12570, -13608, -2501, 947, 808, -1166, -1564
12580, -13477, -2576, 970, 845, -1306, -1147
12590, -12918, -1991, 1287, 894, -1667, 178
12600, -13971, -1274, 396, 1862, -1272, 1718
12610, -14111, -1443, 431, 1699, -1201, 1969
12620, -14562, -2285, 971, 1022, -209, 1955
12630, -14578, -2690, 1310, 597, 528, 1883
12640, -14516, -2839, 1688, 176, 1091, 1796
12650, -14784, -2844, 2019, -204, 1691, 1478
12660, -15482, -3074, 1826, -293, 1829, 1196
12670, -16588, -3064, 1551, -476, 1783, 888
12680, -17955, -2547, 1086, -640, 1562, 658
12690, -20202, -2513, -623, 298, 733, 503
12700, -20457, -3425, -1999, 719, 939, 519
12710, -20104, -4056, -2157, -61, 1156, 533
12720, -20155, -3179, 1883, -3216, 1888, -78
12730, -20715, -2156, 3663, -4032, 2350, -372
12740, -21351, -1011, 5117, -4673, 2407, -528
12750, -21924, -272, 6397, -5428, 1661, -805
12760, -21875, -815, 7287, -6346, -1418, -1186
12770, -21177, -1505, 6105, -6420, -3280, -1338
12780, -20542, -2406, 4321, -6723, -4633, -1803
12790, -20547, -4648, 1217, -7702, -5434, -3668
12800, -19946, -6756, 333, -7349, -5557, -4577
12810, -18733, -9625, -628, -5220, -4774, -4863
12820, -17488, -12021, -2422, -1151, -1856, -4133
12830, -15720, -12504, -10103, 7336, 6032, -1512
12840, -14585, -11835, -13840, 8517, 7790, -862
12850, -13272, -6378, -14999, 4625, 7698, -394
12860, -12616, -2236, -11893, 2628, 4879, 141
12870, -12719, 754, -8787, 1817, 1347, 650
12880, -15767, 991, -5962, 1882, -2024, 499
12890, -18421, -2000, -5457, 1517, -2943, -801
12900, -20608, -4985, -4834, 745, -3923, -1995
12910, -20856, -6883, -2167, -105, -4697, -1870
12920, -17243, -5526, -454, -642, -4929, 316
12930, -15911, -3837, 937, 464, -4336, 1110
12940, -14822, -2445, 1420, 2835, -3458, 1847
12950, -13803, -1138, -230, 7934, -1279, 2582
12960, -13954, -1046, -1571, 9061, 86, 2475
12970, -14297, -1195, -2878, 9044, 1189, 2120
12980, -14513, -1746, -4482, 6560, 1885, 1323
12990, -14336, -2097, -4471, 4972, 1164, 868
13000, -14060, -2426, -3964, 3675, 364, 528
13010, -13475, -1953, -2707, 2899, -123, 428
13020, -13618, -1469, -2254, 2865, -379, 679
13030, -13931, -1060, -2017, 3327, -432, 926
13040, -14355, -863, -1852, 3864, -248, 1140
13050, -15420, -1052, -1890, 4772, 331, 1382
13060, -15516, -1221, -1772, 4848, 459, 1482
13070, -15332, -1597, -1061, 4382, -68, 1315
13080, -15089, -1700, -566, 4053, -608, 1193
13090, -14697, -1750, -74, 3742, -980, 1153
13100, -13964, -2053, 418, 3585, -934, 1032
13110, -13772, -2165, 462, 3648, -735, 934
13120, -13597, -2096, 335, 3853, -718, 904
13130, -13370, -1924, -9, 4140, -875, 886
13140, -13196, -1437, -624, 4291, -818, 733
13150, -13207, -1263, -746, 4225, -653, 644
13160, -13387, -1152, -790, 4176, -472, 530
13170, -13762, -922, -903, 4059, 204, 416
13180, -14018, -772, -776, 3911, 588, 392
13190, -14276, -620, -655, 3796, 808, 364
13200, -14535, -509, -509, 3661, 1078, 337
13210, -15047, 4, -343, 3272, 1854, 259
13220, -15492, 494, -689, 3002, 2042, 192
13230, -15876, 932, -1180, 2524, 1802, 196
13240, -16569, -265, -1356, 1165, 1146, 165
13250, -16725, -1618, -1145, 835, 1257, 152
13260, -16842, -2603, -900, 960, 1354, 104
13270, -16872, -3007, -641, 1365, 1471, 67
13280, -18113, -2214, -100, 2174, 2231, -126
13290, -19160, -1864, 40, 2391, 2587, -91
13300, -20245, -1914, 1223, 2509, 2503, 186
13310, -20292, -2167, 2099, 2664, 2411, 155
13320, -20205, -2585, 2899, 2861, 2646, 56
13330, -20355, -3386, 3827, 3448, 3069, -144
13340, -20583, -3347, 4040, 3805, 2606, -195
13350, -20685, -2721, 3711, 4287, 1637, -188
13360, -20937, -1600, 2374, 4797, 282, -94
13370, -22112, 155, -1876, 5111, -2927, 633
13380, -22880, -300, -3618, 4747, -4572, 1193
13390, -23005, -1528, -4921, 4238, -5952, 1697
13400, -19964, -2571, -6731, 3272, -7099, 1411
13410, -17664, -2557, -7013, 2716, -6096, 649
13420, -15122, -2129, -7531, 2076, -4301, 222
13430, -12879, -1511, -8035, 1110, -2101, 49
13440, -10832, -1463, -8362, -942, 3239, -697
13450, -11996, -2390, -8500, -1109, 4341, -1277
13460, -14419, -3771, -8347, -530, 2252, -1680
13470, -17585, -4385, -6279, 1237, -3729, -815
13480, -18211, -4435, -4773, 2052, -3438, -282
13490, -18083, -4314, -3337, 2966, -2079, 70
13500, -15849, -3649, -879, 4272, -301, 440
13510, -15309, -2048, 576, -546, -1350, -1822
13520, -15548, -1169, 788, -3363, -1299, -1936
13530, -15342, -685, 107, -3519, -1563, -1919
13540, -15028, -355, -637, -3451, -1459, -1898
13550, -14512, -570, -1253, -3340, -1062, -1864
13560, -14073, -2285, -1739, -3368, -603, -2441
13570, -14444, -2964, -1812, -3489, -981, -2938
13580, -14913, -3129, -1700, -3743, -1549, -3226
13590, -15905, -2425, -893, -4721, -2557, -3669
13600, -16154, -1931, -282, -5118, -2813, -3859
13610, -16001, -1755, 263, -5145, -2705, -3848
13620, -15296, -1738, 179, -3591, -1379, -3547
13630, -14723, -1826, -343, -2589, -522, -3032
13640, -13933, -2070, -1010, -1796, 205, -2355
13650, -12575, -2630, -2112, -1302, 431, -1741
13660, -12045, -2914, -2542, -1287, -577, -657
13670, -11521, -3119, -2750, -1647, -1597, -249
13680, -11389, -3194, -2550, -2219, -2683, -94
13690, -12082, -2742, -1502, -3210, -3980, 341
13700, -12681, -2511, -892, -3410, -4623, 852
13710, -13440, -2370, -268, -3440, -5389, 1424
13720, -14680, -2249, 915, -2902, -6282, 2564
13730, -15171, -1931, 1959, -2567, -5962, 2858
13740, -16817, -1810, 4235, -1988, -1694, 2137
13750, -17762, -2714, 4754, -1851, 1413, 1665
13760, -18290, -4108, 4304, -1749, 3522, 1428
13770, -18373, -5781, 2528, -1772, 3201, 1301
13780, -18849, -5130, 1661, -1844, -819, 106
13790, -19153, -4161, 771, -1464, -1024, -294
13800, -19596, -3491, -412, -613, -15, -277
13810, -20632, -3320, -959, -444, 1535, -429
13820, -20210, -3059, 951, -1549, 889, -385
13830, -19629, -2235, 3364, -2638, 21, -327
13840, -18465, 27, 7004, -3478, -543, -34
13850, -18593, 300, 7776, -4110, -2656, 148
13860, -19471, -349, 6807, -3850, -4503, -103
13870, -21042, -1625, 4551, -3803, -5946, -350
13880, -23820, -4871, 1055, -4535, -8236, -1925
13890, -24449, -5478, 125, -3687, -8223, -2727
13900, -23675, -4952, -1418, -1478, -6202, -2439
13910, -18327, -2999, -6460, 3664, 582, -156
13920, -15119, -2688, -8531, 4847, 2806, 766
13930, -11512, -2421, -9472, 4753, 2874, 1734
13940, -8412, -2277, -8904, 3452, 1041, 2162
13950, -8168, -3545, -7498, 129, -1788, 514
13960, -10611, -4450, -7768, -1170, -1746, -508
13970, -16333, -4660, -7744, -3890, -699, -1611
13980, -19215, -3183, -6050, -5425, -1248, -1902
13990, -22516, 407, 20, -6226, -3040, -1225
14000, -21347, 1437, 2620, -4689, -2619, 9
14010, -18647, 1094, 3698, -2227, -1410, 1210
14020, -14600, -1318, 744, 3221, 1049, 2133
14030, -14303, -2047, -1370, 4267, 1486, 2038
14040, -14309, -2678, -2733, 3775, 1071, 1811
14050, -14678, -3928, -3206, 396, -603, 723
14060, -14773, -4053, -2765, -1052, -976, 317
14070, -14665, -3527, -2297, -1626, -926, 215
14080, -14289, -1961, -1645, -724, 22, 585
14090, -14203, -1519, -1520, 288, 350, 814
14100, -14186, -1428, -1441, 1349, 534, 939
14110, -14331, -1779, -1360, 2262, 693, 882
14120, -14844, -2129, -1410, 3047, 1229, 697
14130, -14840, -1880, -1080, 2953, 1436, 711
14140, -14728, -1629, -688, 2802, 1319, 635
14150, -14750, -1388, 110, 2758, 993, 490
14160, -14827, -1532, 269, 3120, 618, 242
14170, -14871, -1755, 137, 3402, 669, 174
14180, -14634, -2173, -395, 3893, 836, 50
14190, -14480, -2153, -682, 4056, 709, -34
14200, -14424, -2150, -735, 4137, 652, -99
14210, -14519, -2106, -544, 4461, 722, -202
14220, -14480, -1974, -394, 4719, 866, -199
14230, -14347, -1800, -202, 4986, 1030, -157
14240, -13932, -1304, 46, 5274, 1069, -86
14250, -13884, -1032, 52, 5785, 1059, 114
14260, -13999, -688, -148, 5955, 1210, 202
14270, -14393, -446, -412, 6042, 1442, 219
14280, -15431, -376, -716, 6106, 2016, 292
14290, -16023, -594, -748, 6258, 2324, 271
14300, -16626, -944, -740, 6533, 2605, 242
14310, -17878, -1590, -736, 7209, 2931, 195
14320, -18126, -1662, -693, 7431, 2862, 315
14330, -18169, -1535, -726, 7527, 2677, 437
14340, -17859, -1363, -615, 7507, 2193, 633
14350, -17766, -1187, -599, 7609, 2454, 756
14360, -17782, -830, -693, 7856, 2751, 921
14370, -17818, -296, -724, 8131, 2773, 1151
14380, -18230, 754, -692, 8603, 2321, 1603
14390, -18582, 1052, -604, 8839, 2219, 1813
14400, -18686, 1134, -460, 9159, 1956, 1992
14410, -18253, 623, 68, 9790, 1602, 2349
14420, -15779, -523, 1398, 11089, 1420, 3087
14430, -17440, -790, 98, 11455, 916, 3145
14440, -22645, -3006, -3884, 12270, 6, 3853
14450, -23942, -4583, -5416, 12414, -605, 4391
14460, -23203, -6073, -6285, 12320, -1480, 4469
14470, -21062, -7168, -6629, 12014, -2231, 3529
14480, -16125, -7522, -5424, 10580, -674, 1625
14490, -14184, -7490, -4328, 10053, 93, 969
14500, -12992, -7407, -3580, 9983, 190, 252
14510, -12750, -7956, -2302, 10805, 235, -1072
14520, -13740, -8546, -2141, 11748, 347, -1629
14530, -15326, -8362, -2534, 12658, 675, -1974
14540, -18939, -5734, -3949, 13025, 1357, -2514
14550, -19493, -4092, -3913, 12448, 1424, -2669
14560, -19145, -3012, -3294, 11754, 1351, -2775
14570, -16856, -3215, -1996, 11031, 43, -2638
14580, -15689, -4088, -1911, 10997, -873, -2553
14590, -14889, -4840, -1994, 10978, -1113, -2547
14600, -14303, -5305, -2183, 11109, -917, -2523
14610, -14087, -5024, -3194, 12072, -21, -2370
14620, -14284, -4677, -3670, 12514, 444, -2269
14630, -14490, -4501, -3795, 12620, 845, -2267
14640, -14646, -4302, -2824, 11932, 1241, -2318
14650, -14708, -4195, -2054, 11415, 1388, -2391
14660, -14850, -4019, -754, 10550, 1512, -2431
14670, -15030, -4111, -477, 10371, 1501, -2498
14680, -15321, -4195, -414, 10329, 1411, -2601
14690, -15537, -4074, -397, 10215, 1165, -2622
14700, -15907, -3412, -85, 9696, 726, -2622
14710, -16024, -3083, 79, 9465, 678, -2574
14720, -15942, -2872, 168, 9308, 620, -2411
14730, -15597, -2812, 456, 8977, 48, -2100
14740, -15278, -2914, 485, 8921, -48, -1920
14750, -14726, -2976, 417, 8860, -171, -1582
14760, -14186, -3121, 361, 8780, -394, -1217
14770, -13493, -3344, 126, 8380, -574, -540
14780, -13495, -3420, 293, 7982, -607, -306
14790, -13907, -3449, 627, 7554, -460, -145
14800, -14320, -3071, 1208, 7045, -137, 376
14810, -14369, -2663, 1413, 6916, -89, 698
14820, -14313, -2401, 1534, 6786, -20, 1051
14830, -14219, -2450, 1599, 6497, 317, 1668
14840, -14153, -2668, 1752, 6244, 573, 1908
14850, -14064, -2837, 1988, 5953, 804, 2128
14860, -13902, -3233, 2558, 5479, 1221, 2398
14870, -13962, -3453, 2820, 5312, 1594, 2491
14880, -14422, -3383, 3178, 5186, 2035, 2591
14890, -14877, -3376, 3204, 5219, 2765, 2809
14900, -15532, -3658, 3025, 5315, 2675, 2953
14910, -16171, -4236, 2654, 5467, 2242, 3141
14920, -16821, -5849, 1930, 5758, 1104, 3394
14930, -17422, -6370, 1723, 5698, 1007, 3204
14940, -18234, -6344, 1970, 5307, 1042, 2914
14950, -19657, -5082, 3044, 4217, 958, 2433
14960, -19857, -4324, 3675, 3944, 421, 2228
14970, -19732, -3814, 4250, 3747, -235, 2057
14980, -19322, -3526, 4673, 3567, -1043, 1942
14990, -18233, -3898, 4607, 3050, -2871, 1729
15000, -17597, -4319, 4461, 2536, -3811, 1590
15010, -17093, -4835, 4098, 2014, -4656, 1414
15020, -17520, -5816, 1956, 1786, -5512, 1144
15030, -19733, -8800, 945, 2643, -6971, 339
15040, -20411, -10545, -90, 4652, -6602, -6
15050, -20439, -11678, -2084, 7930, -4874, -86
15060, -18396, -10126, -8154, 13163, 627, 484
15070, -16692, -7407, -9935, 12723, 3125, 825
15080, -15282, -4105, -9508, 10981, 4137, 1042
15090, -13652, 564, -5866, 9130, 1438, 1321
15100, -14168, 1265, -4675, 9527, 40, 1191
15110, -17058, -2749, -4186, 9642, -1136, 597
15120, -17692, -5096, -3851, 8812, -2123, 583
15130, -18037, -6402, -3280, 8021, -2697, 667
15140, -17866, -5785, -1041, 6575, -1522, 863
15150, -17682, -4089, 776, 6185, -420, 909
15160, -17270, -2598, 2089, 6727, 945, 1180
15170, -16580, -1780, 2534, 8136, 1955, 1578
15180, -14584, -1546, 1184, 11166, 573, 1906
15190, -14581, -1818, -278, 11831, 297, 1644
15200, -14688, -2024, -1459, 11736, 205, 1453
15210, -14714, -2057, -2193, 10200, -142, 1122
15220, -14779, -1921, -1977, 9488, -102, 920
15230, -14794, -1651, -1679, 9079, 167, 848
15240, -14838, -1287, -1349, 8944, 467, 888
15250, -14984, -730, -626, 9215, 783, 1055
15260, -15196, -653, -414, 9413, 1016, 1121
15270, -15467, -654, -297, 9501, 1445, 1163
15280, -15537, -810, -74, 9316, 2001, 1260
15290, -15551, -923, -120, 9099, 1886, 1207
15300, -15387, -917, -141, 8662, 1733, 1146
15310, -15062, -817, -164, 8041, 1572, 1090
15320, -14354, -1300, 1248, 5651, 882, 95
15330, -14596, -1098, 1698, 5713, 1242, -58
15340, -14727, -908, 1939, 5920, 1117, -82
15350, -14960, -668, 1806, 6129, 1087, -134
15360, -15327, 26, 671, 5527, 1858, -238
15370, -15429, 257, 408, 4672, 1761, -382
15380, -15492, 323, 548, 3797, 1282, -574
15390, -15427, 226, 888, 3151, 967, -748
15400, -15217, 52, 1528, 2791, 1325, -894
15410, -15329, 192, 1535, 2895, 1798, -859
15420, -15760, 421, 1261, 3079, 2076, -867
15430, -16492, 794, 204, 3206, 1275, -656
15440, -16898, 209, -308, 2966, 810, -531
15450, -17054, -741, -498, 2456, 833, -378
15460, -16917, -1546, -301, 1916, 1044, -256
15470, -16886, -1506, 622, 1700, 1364, -436
15480, -17306, -764, 780, 1964, 1741, -525
15490, -18369, -105, 536, 2325, 2145, -559
15500, -19889, -230, 25, 2632, 2260, -165
15510, -20290, -1016, 425, 2531, 2243, -83
15520, -20103, -1595, 1131, 2439, 2336, -33
15530, -18795, -1886, 2912, 2365, 2463, -42
15540, -18387, -1778, 3739, 2427, 2435, -80
15550, -18571, -1562, 4106, 2700, 2324, -75
15560, -20031, -1264, 3150, 4096, 291, 268
15570, -21012, -1320, 2035, 4901, -1065, 519
15580, -22565, -1747, 395, 5610, -2295, 873
15590, -24240, -3637, -3303, 6214, -4883, 2053
15600, -22886, -4561, -4635, 5684, -6037, 2378
15610, -20954, -5261, -5416, 4652, -6438, 2040
15620, -16570, -5096, -5507, 3536, -4883, 526
15630, -14602, -4560, -5440, 2783, -4041, -24
15640, -12962, -3879, -5603, 3105, -2981, -309
15650, -11592, -3252, -6020, 3407, -1652, -438
15660, -11798, -3501, -6748, 3405, 777, -1265
15670, -13417, -4531, -6906, 3459, 650, -1542
15680, -14818, -5346, -6598, 3812, -558, -1487
15690, -17031, -5709, -3802, 4870, -1525, -1313
15700, -17374, -5314, -1796, 5853, -1542, -1137
15710, -16940, -4845, -222, 7009, -911, -1038
15720, -16109, -4464, 620, 7863, 834, -1051
15730, -14875, -3883, 517, 7514, 3235, -1355
15740, -14852, -3755, -51, 6319, 2186, -1582
15750, -14856, -3724, -310, 4788, 109, -1802
15760, -14830, -3397, -840, 3250, -2598, -2074
15770, -15028, -2813, -1578, 3325, -2064, -1992
15780, -15056, -2285, -2436, 3563, -928, -1702
15790, -14865, -1754, -3711, 3729, 771, -1368
15800, -14489, -1712, -3596, 3519, 1248, -1277
15810, -14055, -1983, -3012, 3318, 1153, -1297
15820, -14124, -2989, -1431, 2813, -99, -1782
15830, -14516, -3208, -523, 2156, -1, -1920
15840, -15012, -3156, 370, 1481, 460, -1971
15850, -15729, -2524, 1435, 1104, 102, -1856
15860, -15799, -2350, 1403, 1327, -657, -1779
15870, -15610, -2318, 1035, 1540, -1359, -1720
15880, -15270, -2345, 641, 1619, -1704, -1689
15890, -14735, -2533, 37, 1799, -1045, -1681
15900, -14454, -2496, -286, 1958, -516, -1567
15910, -14330, -2427, -470, 1924, -198, -1469
15920, -14265, -2370, 22, 1107, -1074, -1458
15930, -14233, -2293, 574, 604, -1526, -1343
15940, -14303, -2279, 1113, 273, -1616, -1184
15950, -14351, -2096, 1686, 309, -1143, -585
15960, -14344, -1919, 1680, 496, -1038, -241
15970, -14359, -1818, 1564, 637, -1124, 49
15980, -14814, -1840, 1373, 643, -1065, 590
15990, -15075, -1901, 1400, 488, -975, 855
16000, -15236, -1993, 1557, 366, -855, 1121
16010, -15417, -2425, 2015, 126, -261, 1516
16020, -15469, -2737, 2186, -39, 250, 1592
16030, -15475, -3057, 2221, -189, 797, 1575
16040, -15965, -3199, 1851, -653, 1476, 1176
16050, -16770, -2854, 1507, -1028, 1245, 779
16060, -17741, -2273, 994, -1412, 673, 444
16070, -19175, -2354, 54, -1453, -443, 403
16080, -19519, -3775, -665, -1080, -122, 427
16090, -19600, -5308, -747, -1063, 382, 331
16100, -19695, -6513, 43, -1678, 908, 39
16110, -19380, -5171, 3209, -4141, 1724, -784
16120, -19616, -3106, 5038, -5184, 1361, -1307
16130, -19893, -1306, 6377, -5455, 105, -1488
16140, -20946, -1037, 5850, -5060, -3401, -1584
16150, -21400, -2766, 4082, -5167, -5088, -1871
16160, -21288, -4362, 2023, -5428, -5947, -2436
16170, -21348, -5782, 342, -5543, -6133, -3745
16180, -21063, -6560, -1756, -4135, -3526, -5691
16190, -19850, -5800, -3019, -2321, -601, -5036
16200, -18018, -4253, -4690, -221, 2017, -3570
16210, -14427, -1211, -7054, 2340, 2142, -834
16220, -12545, -468, -7380, 2069, 266, 359
16230, -13610, -2713, -7332, -383, -880, 443
16240, -15013, -1827, -7514, -1596, -7, 71
16250, -16901, -502, -6939, -3217, 633, -381
16260, -18898, 296, -5578, -4446, 1266, -858
16270, -18358, -250, -3155, -3591, 1883, -239
16280, -16268, -981, -2709, -2734, 1717, 430
16290, -14887, -1802, -2579, -2234, 1532, 765
16300, -14154, -2345, -2797, -1823, 1387, 920
16310, -13779, -3262, -3143, -1841, 1090, 958
16320, -13916, -3507, -3032, -2265, 1082, 774
16330, -14278, -3453, -2799, -2864, 1127, 431
16340, -15380, -2621, -1852, -4050, 1493, -226
16350, -15987, -2047, -1403, -4267, 1679, -360
16360, -16342, -1556, -1060, -4077, 1914, -344
16370, -16749, -878, -1006, -2669, 2228, -196
16380, -16708, -565, -1268, -1834, 2250, -12
16390, -16436, -223, -1634, -1207, 2209, 262
16400, -15922, 540, -2619, -930, 2090, 497
16410, -15783, 732, -3101, -1609, 1642, 511
16420, -15752, 592, -3313, -2396, 1161, 236
16430, -15684, 168, -3027, -3131, 425, -99
16440, -15125, -778, -2316, -3439, -725, -459
16450, -14766, -1217, -2009, -3325, -1039, -540
16460, -14334, -1598, -1324, -3062, -1321, -566
16470, -14285, -1542, -1099, -2922, -1160, -587
16480, -14266, -1352, -899, -2802, -954, -641
16490, -14179, -1020, -431, -2509, -953, -699
16500, -14223, -952, -260, -2326, -1011, -765
16510, -14280, -884, -98, -2134, -1002, -862
16520, -14444, -794, -9, -1943, -945, -1039
16530, -14752, -499, 0, -1717, -829, -1299
16540, -15016, -256, -20, -1633, -976, -1382
16550, -15361, -61, -135, -1557, -1228, -1426
16560, -15856, -209, -449, -1446, -1461, -1395
16570, -15895, -625, -679, -1133, -1720, -1387
16580, -15920, -1158, -895, -971, -1930, -1454
16590, -16091, -1557, -1118, -914, -2308, -1518
16600, -17294, -2390, -1576, -1134, -3139, -1645
16610, -17845, -2766, -1388, -1204, -3613, -1556
16620, -18446, -2903, -1109, -1005, -3741, -1397
16630, -19041, -1728, -1072, 165, -3382, -798
16640, -18918, -1179, -1098, 678, -3298, -424
16650, -18742, -1168, -977, 1064, -3377, -239
16660, -18611, -1801, -304, 1630, -3573, -255
16670, -18600, -1732, 58, 1879, -3326, -166
16680, -18670, -1384, 391, 2094, -2979, -47
16690, -19180, -229, 879, 2195, -2339, 274
16700, -19708, 581, 624, 2093, -1854, 547
16710, -20793, 1275, -101, 1960, -1538, 855
16720, -22560, 575, -2643, 1742, -3174, 1701
16730, -21938, -445, -3646, 1602, -4638, 1971
16740, -20897, -898, -4483, 1364, -5416, 1914
16750, -19345, -554, -5310, 992, -5546, 1815
16760, -15327, 846, -6922, -678, -4803, 1846
16770, -12940, 1115, -7349, -2134, -3832, 1702
16780, -10773, 613, -7063, -3730, -2260, 1236
16790, -9868, -866, -5931, -4740, -817, 416
16800, -13292, -4655, -3622, -3268, -3081, -889
16810, -18269, -5144, -2985, -1195, -4580, -633
16820, -19967, -4189, -3216, -1239, -2891, -504
16830, -20673, -3081, -3115, -2155, -1080, -295
16840, -19500, -907, -1257, -4392, -907, 64
16850, -18068, -74, -223, -4778, -1383, 313
16860, -16672, 370, 294, -4705, -1263, 447
16870, -15532, 548, 141, -4538, -806, 408
16880, -14306, 478, -1586, -5365, -208, 140
16890, -14129, 93, -2495, -6406, -515, -164
16900, -14321, -1017, -4149, -8352, -1410, -972
16910, -14207, -1785, -4602, -8988, -1534, -1233
16920, -14047, -2665, -4798, -9478, -1472, -1470
16930, -13994, -3526, -3822, -10217, -1895, -1581
16940, -14182, -3293, -2950, -10501, -2258, -1474
16950, -14602, -2856, -2042, -10832, -2350, -1400
16960, -15141, -2362, -1319, -11235, -2233, -1354
16970, -16570, -1154, 294, -12274, -2360, -1474
16980, -17117, -524, 849, -12737, -3119, -1651
16990, -17531, -243, 1274, -13196, -3906, -1975
17000, -17334, -4, 879, -13189, -3762, -2082
17010, -17176, 224, 60, -12829, -3042, -1937
17020, -17051, 556, -895, -12553, -2636, -1801
17030, -16933, 666, -1656, -12555, -2613, -1630
17040, -16674, 200, -3006, -13064, -3152, -1275
17050, -16499, -208, -3448, -13578, -3545, -1160
17060, -16351, -928, -3490, -14258, -4039, -1205
17070, -15629, -2156, -3034, -15487, -4973, -1340
17080, -15014, -2716, -2670, -15918, -5099, -1238
17090, -14538, -2906, -2367, -16089, -4915, -1092
17100, -14307, -2106, -1582, -16290, -4132, -912
17110, -14880, -2374, -1455, -14442, -1609, -557
17120, -14915, -2458, -1667, -14434, -1277, -508
17130, -14807, -2130, -1211, -14420, -1091, -430
17140, -14654, -2311, -874, -13980, -828, -396
17150, -14768, -3001, -944, -13391, -358, -556
17160, -15324, -4192, -609, -13627, -236, -1049
17170, -15568, -4109, 328, -14458, -949, -1194
17180, -15884, -3634, 1423, -14943, -1671, -1269
17190, -16050, -3011, 2348, -14713, -2006, -1147
17200, -16376, -2075, 2708, -12603, -1095, -712
17210, -16710, -2001, 2095, -11451, -92, -623
17220, -17150, -2071, 1246, -10696, 714, -622
17230, -17645, -2442, 152, -10137, 284, -724
17240, -17546, -2674, 145, -10035, -447, -777
17250, -17226, -2777, 459, -9894, -1035, -785
17260, -17118, -2759, 914, -9786, -1321, -827
17270, -17278, -2572, 2049, -9572, -1780, -846
17280, -17360, -2362, 2521, -9309, -2242, -804
17290, -17451, -2094, 2839, -8980, -2661, -734
17300, -17542, -1291, 3124, -8474, -3204, -499
17310, -17498, -914, 3236, -8370, -3450, -332
17320, -17445, -634, 3335, -8307, -3756, -144
17330, -17426, -743, 3324, -7885, -4239, 195
17340, -17989, -1642, 2927, -7470, -4027, 16
17350, -19526, -2840, 2313, -7056, -3612, -687
17360, -22276, -3536, 828, -5940, -2618, -1740
17370, -21783, -2391, -209, -5089, -1832, -1343
17380, -20010, -976, -1398, -4201, -936, -482
17390, -14191, -84, -4425, -3261, 164, 1510
17400, -12182, 33, -5755, -3985, 15, 1554
17410, -11931, -124, -6701, -5643, -283, 844
17420, -12648, -67, -6378, -9496, -878, -277
17430, -12499, 412, -6200, -10778, 159, -470
17440, -12511, 883, -6212, -11832, 1591, -719
17450, -13039, 1091, -6014, -12975, 2494, -1075
17460, -17129, 483, -4267, -14546, 2191, -1927
17470, -19056, 257, -3926, -13863, 2038, -1587
17480, -19861, 453, -4117, -12420, 2062, -679
17490, -17687, 1216, -4241, -11011, 1838, 906
17500, -16852, 1045, -3755, -11513, 1612, 961
17510, -16323, 624, -3525, -12043, 1513, 856
17520, -15369, -262, -4308, -12370, 2276, 601
17530, -15103, -781, -4828, -12758, 2490, 303
17540, -15056, -1437, -4957, -13449, 2433, -31
17550, -15294, -2116, -4694, -14698, 2240, -331
17560, -15314, -2401, -4399, -14893, 2369, -407
17570, -15271, -2751, -4110, -14933, 2478, -500
17580, -15032, -2670, -3615, -14931, 2746, -809
17590, -15400, -2458, -3235, -15018, 2669, -1084
17600, -15624, -1931, -2859, -14946, 2335, -1160
17610, -16218, -811, -2400, -14029, 2133, -1182
17620, -16678, -423, -2502, -13377, 2099, -1269
17630, -16943, -68, -2770, -12930, 2000, -1304
17640, -17102, 510, -3035, -12872, 1635, -1441
17650, -16732, 700, -2973, -12927, 1407, -1577
17660, -16396, 513, -2863, -12815, 1051, -1780
17670, -15909, -31, -2736, -12513, 608, -1924
17680, -15765, -420, -2735, -11698, -17, -1992
17690, -15535, -767, -2668, -11283, -194, -2044
17700, -15217, -1100, -2509, -11018, -456, -2141
17710, -14573, -1569, -1647, -10594, -1080, -2565
17720, -14520, -1552, -1298, -10297, -1206, -2767
17730, -14283, -1288, -1012, -9977, -1284, -2873
17740, -13996, -675, -358, -9470, -1648, -3119
17750, -13930, -318, -26, -9187, -1936, -3236
17760, -14020, 191, 114, -8863, -2171, -3312
17770, -14507, 1232, -307, -8249, -2044, -3302
17780, -14913, 1297, -802, -7955, -1857, -3313
17790, -15361, 974, -1278, -7604, -1865, -3280
17800, -16171, -299, -1838, -6399, -2571, -3234
17810, -16551, -918, -1862, -5729, -2822, -3274
17820, -17042, -1298, -1764, -5186, -2837, -3327
17830, -18599, -1651, -1101, -4178, -2772, -3107
17840, -19464, -1612, -905, -3421, -2806, -2762
17850, -19910, -1250, -938, -2559, -2688, -2263
17860, -19874, -717, -1219, -1846, -2415, -1753
17870, -19766, 122, -2107, -1410, -2787, -1314
17880, -19766, 477, -2198, -1697, -3574, -1344
17890, -19947, 825, -2050, -2065, -4040, -1442
17900, -19646, 1735, -1580, -2327, -3486, -1529
17910, -19532, 2114, -1486, -2227, -3018, -1604
17920, -19373, 2404, -1385, -2215, -2661, -1529
17930, -19450, 2759, -1332, -2356, -2378, -1343
17940, -20463, 3192, -1846, -2971, -1799, -831
17950, -20952, 2673, -2153, -3350, -1615, -552
17960, -20723, 1477, -2246, -3576, -1756, -438
17970, -20240, 160, -2323, -3552, -2128, -681
17980, -14584, -55, -4642, -6915, -3439, -2287
17990, -13492, 342, -5030, -7498, -3214, -2262
18000, -11918, -692, -5041, -7459, -2212, -2133
18010, -12376, -2268, -4490, -6466, -2328, -2246
18020, -12841, -3468, -4408, -4974, -3161, -1932
18030, -15252, -4071, -4734, -3359, -3164, -1461
18040, -16638, -3581, -4893, -3551, -2509, -1543
18050, -17373, -2912, -4974, -4373, -2135, -1629
18060, -17389, -1639, -4036, -7113, -1887, -1886
18070, -16897, -1266, -3539, -8160, -1785, -1929
18080, -16399, -1043, -3311, -8635, -1814, -1977
18090, -15520, -1069, -3507, -8696, -2332, -2093
18100, -15314, -1280, -3576, -8789, -2583, -2249
18110, -15099, -1635, -3319, -8904, -2941, -2459
18120, -14886, -2082, -2955, -8936, -3373, -2676
18130, -14643, -2660, -2271, -9173, -3767, -3170
18140, -14627, -2835, -2007, -9382, -3949, -3374
18150, -14600, -2893, -1677, -9741, -4237, -3472
18160, -14857, -3085, -845, -10595, -4752, -3554
18170, -15106, -3003, -808, -10748, -4862, -3484
18180, -15220, -2971, -790, -10735, -4571, -3347
18190, -15556, -2723, -1235, -10372, -3879, -3322
18200, -15829, -2608, -1263, -10264, -3734, -3468
18210, -16272, -2374, -1331, -10071, -3384, -3733
18220, -16342, -2285, -1416, -10015, -2891, -3758
18230, -16172, -2156, -1533, -10010, -2343, -3594
18240, -15928, -2045, -1611, -9990, -1982, -3363
18250, -15496, -2053, -2114, -9902, -1898, -3070
18260, -15623, -2142, -2537, -9917, -2019, -2976
18270, -15085, -2142, -2784, -9959, -2295, -2651
18280, -13358, -2409, -2765, -9941, -2116, -1947
18290, -12536, -2712, -2888, -9817, -1797, -1820
18300, -11989, -2961, -2832, -9634, -1739, -1762
18310, -11709, -3013, -2446, -9347, -1799, -1679
18320, -11940, -3288, -1143, -8127, -1435, -1328
18330, -12434, -3502, -458, -7286, -1071, -1115
18340, -13023, -3760, -42, -6328, -707, -881
18350, -13628, -4543, 190, -4782, -415, -313
18360, -14204, -5265, 146, -4713, -626, -454
18370, -15249, -6054, 364, -5499, -1309, -949
18380, -17710, -5154, 2746, -8844, -4372, -1426
18390, -18170, -3087, 4848, -9888, -5722, -1042
18400, -18206, -1350, 6259, -9303, -5686, -723
18410, -18645, -1083, 3787, -4972, -515, -846
18420, -19456, -2279, 1136, -3436, 2395, -1065
18430, -20341, -2841, -1025, -2949, 3571, -1164
18440, -20080, -2585, -1207, -4568, 1513, -987
18450, -19395, -1588, 372, -5594, -859, -911
18460, -19084, -351, 2061, -6324, -3101, -890
18470, -19123, 1028, 5142, -7885, -6042, -858
18480, -19524, 1124, 6002, -8532, -7119, -1084
18490, -20138, 1002, 6349, -9035, -7950, -1575
18500, -20937, 587, 6165, -9536, -8192, -2405
18510, -22154, -2838, 4993, -9518, -5804, -4912
18520, -21588, -6069, 3227, -7359, -2413, -5645
18530, -20392, -8777, -18, -3406, 2662, -5168
18540, -17397, -8593, -8300, 4151, 12856, -2549
18550, -15939, -6700, -11168, 4969, 13991, -1506
18560, -12916, -4981, -12651, 3852, 11234, 189
18570, -5266, -2507, -11998, -724, 1731, 2943
18580, -5151, -2393, -10827, -3067, -445, 1857
18590, -7643, -3893, -10378, -4687, -809, 13
18600, -14461, -7460, -11707, -6937, -1404, -1693
18610, -18026, -7949, -11084, -9004, -3014, -1984
18620, -21835, -6548, -7950, -11740, -5682, -2574
18630, -25480, -1680, 2265, -12697, -9485, -1823
18640, -23574, -306, 4837, -8854, -7567, 631
18650, -19379, -239, 4586, -4010, -4294, 3408
18660, -13178, -977, 347, 1899, 1160, 5362
18670, -12826, -1826, -2261, 2481, 3237, 4614
18680, -13402, -2751, -4525, 1879, 4293, 3592
18690, -14191, -3465, -5985, 473, 3999, 2667
18700, -15037, -4076, -6178, -2800, 904, 1131
18710, -14899, -3727, -5416, -3919, -190, 562
18720, -14722, -3287, -4342, -4538, -457, 309
18730, -14406, -2113, -2822, -4151, -789, 848
18740, -14420, -1690, -2455, -3601, -1114, 1333
18750, -14625, -1267, -2372, -3082, -1285, 1789
18760, -15506, -300, -2418, -2540, -1075, 1871
18770, -15996, -2, -2305, -2427, -585, 1689
18780, -16180, -27, -2202, -2265, -416, 1409
18790, -15728, -608, -1615, -2147, -539, 1058
18800, -15168, -1004, -1355, -2040, -1517, 724
18810, -14695, -1325, -1136, -2011, -1881, 540
18820, -14363, -1656, -1027, -1949, -2048, 317
18830, -13965, -2285, -915, -1753, -2039, 32
18840, -13941, -3209, -1008, 108, -1590, -2
18850, -14005, -3141, -730, 514, -1614, 27
18860, -14095, -3004, -513, 978, -1785, 71
18870, -14254, -2725, -322, 1415, -1892, 67
18880, -14568, -1975, 315, 1843, -1584, -71
18890, -14707, -1382, 775, 1968, -1492, -175
18900, -14833, -712, 1193, 2165, -1619, -306
18910, -14732, 565, 1427, 2387, -1831, -376
18920, -14662, 980, 1199, 2555, -1736, -416
18930, -14681, 1111, 858, 2393, -1600, -496
18940, -14818, 912, 374, 2171, -1552, -484
18950, -15650, 95, -585, 1734, -1701, -474
18960, -16292, -511, -994, 1563, -1578, -518
18970, -16983, -1133, -1380, 1456, -1211, -606
18980, -18192, -1593, -1859, 1064, -463, -700
18990, -18926, -1458, -1727, 747, -649, -796
19000, -19495, -1197, -1287, 458, -1110, -699
19010, -19879, -1027, -785, 363, -1578, -567
19020, -20427, -1300, 289, 412, -1704, -553
19030, -20554, -1506, 884, 446, -1574, -519
19040, -20484, -1572, 1462, 568, -1582, -465
19050, -20417, -966, 2420, 751, -1314, -398
19060, -20545, -319, 2744, 692, -810, -315
19070, -20429, 385, 2888, 440, -220, -107
19080, -19621, 1131, 3040, -249, 40, 376
19090, -19695, 1052, 2696, -404, -493, 573
19100, -20415, 428, 1409, -264, -1409, 721
19110, -21233, -1873, -2149, -266, -4245, 1262
19120, -20792, -2494, -3672, -694, -5045, 1101
19130, -20141, -2549, -4827, -1193, -5127, 469
19140, -15968, -779, -6491, -2246, -2818, 540
19150, -13603, -15, -7102, -3000, -927, 825
19160, -11543, -36, -7165, -3838, 1127, 825
19170, -11147, -3576, -5692, -3634, 2867, -450
19180, -12305, -5758, -4759, -1880, 501, -714
19190, -13408, -7231, -4260, 223, -2580, -391
19200, -16205, -7121, -3796, 1730, -4482, -150
19210, -17458, -5468, -4235, 2100, -3177, -747
19220, -17638, -3647, -3830, 377, -843, -811
19230, -17227, -2166, -3066, -1867, 738, -976
19240, -16388, -789, -411, -3809, 455, -1123
19250, -15134, -1005, 644, -5513, -2447, -1285
19260, -15014, -997, 1155, -5379, -2804, -1349
19270, -15140, -1157, 1071, -4975, -2218, -1402
19280, -15305, -1917, -898, -4471, -918, -1616
19290, -15065, -2060, -1624, -4827, -948, -1780
19300, -14429, -2166, -1907, -5488, -1303, -1950
19310, -13741, -2496, -1580, -6936, -1712, -2655
19320, -13822, -2599, -1140, -7459, -2096, -2948
19330, -14112, -2739, -719, -7842, -2558, -3175
19340, -14982, -2817, 204, -9004, -2919, -3608
19350, -15577, -2679, 1106, -9705, -2905, -3964
19360, -15930, -2543, 2017, -9949, -2894, -4384
19370, -15181, -2831, 2719, -8019, -1797, -4555
19380, -14556, -2905, 2074, -6239, -472, -4418
19390, -13989, -3048, 1362, -4733, 1185, -4227
19400, -13403, -3578, -184, -2589, 3446, -3410
19410, -13223, -3786, -1098, -1792, 3290, -2671
19420, -12935, -3915, -1751, -1460, 2333, -1820
19430, -13162, -3999, -1904, -1869, -352, -539
19440, -13421, -3796, -1329, -2038, -1441, 5
19450, -13803, -3623, -550, -2089, -2120, 506
19460, -14315, -3431, 215, -2019, -2688, 1044
19470, -15210, -3071, 1411, -1225, -3908, 2458
19480, -15421, -2799, 1781, -545, -4165, 3270
19490, -15589, -2510, 2116, 159, -4169, 3893
19500, -15873, -2703, 3119, 943, -3740, 3680
19510, -16598, -4135, 3497, 554, -2708, 2263
19520, -19112, -7079, 4052, -1693, -176, -199
19530, -18600, -5934, 4349, -2350, 111, -107
19540, -17889, -4345, 3955, -1733, -124, 21
19550, -18840, -5130, -37, 2480, 1653, -478
19560, -19999, -5886, -1971, 3572, 3055, -692
19570, -20399, -4302, -686, 1450, 878, -522
19580, -19683, -2175, 2181, -342, -1444, -486
19590, -18969, 1270, 7060, -1843, -2797, -294
19600, -18838, 1596, 8858, -4162, -4659, -376
19610, -19492, 857, 9244, -4406, -5798, -1081
19620, -20493, -532, 7743, -4045, -6238, -1696
19630, -22057, -3139, 4020, -3715, -5093, -2938
19640, -22690, -4654, 2948, -2937, -3630, -3981
19650, -22616, -5970, 1221, -287, -749, -4095
19660, -18621, -5032, -6050, 7696, 5670, -322
19670, -16027, -4207, -9583, 9433, 6232, 1351
19680, -12615, -3983, -12009, 9203, 5242, 2619
19690, -9152, -4280, -13216, 7551, 3436, 3163
19700, -8908, -4457, -11789, 2205, 704, 464
19710, -9878, -3828, -10902, -291, 1049, -465
19720, -11293, -3143, -10243, -2455, 2009, -852
19730, -16899, -1981, -7998, -6383, 796, -1697
19740, -21118, -143, 4812, -5727, -4332, -288
19750, -15499, -1550, 2679, 1903, 1880, 2476
19760, -13836, -2314, 384, 3959, 4074, 2843
19770, -13237, -2929, -1687, 4232, 4927, 2612
19780, -14295, -3722, -4175, 3204, 4571, 1973
19790, -14830, -3847, -4274, 74, 2248, 779
19800, -14922, -3657, -4081, -705, 1283, 476
19810, -14654, -3347, -3727, -781, 1001, 282
19820, -14282, -2883, -3032, -45, 2055, 290
19830, -14353, -2629, -2797, 363, 2236, 458
19840, -14635, -2375, -2662, 652, 2090, 584
19850, -15678, -1892, -2308, 768, 1427, 583
19860, -16174, -1601, -1932, 748, 908, 540
19870, -16387, -1358, -1423, 841, 361, 554
19880, -16410, -1185, -915, 1064, -170, 557
19890, -15944, -1012, -248, 1746, -486, 435
19900, -15621, -1073, -195, 1960, -92, 357
19910, -15251, -1152, -381, 1999, 399, 294
19920, -14664, -1125, -613, 1736, 667, 109
19930, -14391, -900, -617, 1616, 248, 21
19940, -14170, -662, -448, 1534, -190, -18
19950, -13886, -363, -267, 1507, -396, 11
19960, -13705, 356, 170, 1732, -425, -5
19970, -13697, 661, 301, 1931, -280, -34
19980, -14192, 890, 412, 2143, 239, -271
19990, -14602, 840, 494, 2068, 348, -436
20000, -15012, 720, 674, 1899, 287, -626
20010, -15363, 636, 803, 1760, 172, -800
20020, -15452, 604, 831, 1568, 127, -1076
20030, -15292, 681, 705, 1426, 100, -1221
20040, -15226, 734, 541, 1229, -40, -1435
20050, -15572, 601, 224, 685, -467, -1926
20060, -15875, 407, -30, 446, -736, -2124
20070, -16215, 110, -480, 253, -872, -2223
20080, -16586, -172, -1197, 106, -720, -2209
20090, -17379, -1120, -2405, -430, -76, -2036
20100, -17787, -1400, -2599, -752, 127, -1886
20110, -18315, -1297, -2407, -969, 31, -1817
20120, -19356, -203, -1106, -1029, -691, -1477
20130, -20091, 511, -316, -1007, -1027, -1205
20140, -20801, 1125, 355, -1008, -1077, -975
20150, -21472, 1633, 634, -1087, -773, -894
20160, -21678, 2470, -469, -2266, -346, -653
20170, -21140, 2706, -940, -3534, -980, -334
20180, -21037, 3048, -1811, -4508, -1346, 111
20190, -22517, 3167, -5006, -5205, -702, 1305
20200, -23067, 1849, -6666, -5387, -960, 1852
20210, -21421, -3219, -7849, -5888, -2467, 2087
20220, -19567, -5473, -7552, -5870, -2644, 1574
20230, -17279, -6439, -7365, -5634, -2233, 861
20240, -14487, -6135, -6847, -5882, -1242, 372
20250, -10154, -4484, -4213, -7495, -389, -337
20260, -9134, -4046, -2571, -7750, -1557, -596
20270, -9273, -4096, -1223, -7323, -3153, -762
20280, -14856, -3189, -771, -5206, -3452, -956
20290, -18470, -1959, -1659, -4408, -2476, -610
20300, -20642, -743, -2784, -4292, -1593, -22
20310, -19458, -913, -2797, -6423, 826, -246
20320, -18188, -1577, -2540, -7553, 798, -915
20330, -17122, -2048, -2284, -8617, -736, -1550
20340, -16350, -2514, -1779, -9576, -2642, -1948
20350, -15584, -2581, -2071, -10196, -4103, -1768
20360, -15408, -1836, -3042, -10169, -3472, -1396
20370, -15057, -896, -4206, -10263, -2753, -1142
20380, -14265, -391, -5413, -11099, -2247, -1532
20390, -13957, -1074, -5115, -11430, -2535, -1988
20400, -13635, -1913, -4574, -11396, -2913, -2356
20410, -13772, -3486, -3472, -11307, -3469, -2620
20420, -14146, -3893, -2836, -11518, -3853, -2641
20430, -14374, -3958, -2259, -11756, -4316, -2606
20440, -15387, -3216, -1185, -12213, -5183, -2947
20450, -15764, -2888, -944, -12254, -5462, -3205
20460, -16015, -2613, -850, -12162, -5384, -3454
20470, -16255, -2053, -616, -11968, -5106, -3662
20480, -16318, -2027, -1012, -10831, -4716, -3829
20490, -16421, -2077, -1438, -10329, -3873, -3668
20500, -16341, -1902, -2118, -9894, -3161, -3223
20510, -15484, -1235, -3147, -9831, -3439, -2034
20520, -14946, -1121, -3243, -10320, -3952, -1725
20530, -14445, -1297, -3227, -10882, -4415, -1711
20540, -13206, -2241, -2998, -11890, -4885, -2042
20550, -12610, -3033, -2988, -11970, -4838, -1913
20560, -12064, -3486, -3133, -11866, -4225, -1698
20570, -12002, -3689, -2928, -11770, -3424, -1616
20580, -12131, -3713, -1587, -10890, -2734, -1159
20590, -12473, -3750, -831, -10238, -2620, -906
20600, -13035, -3833, -169, -9601, -2342, -604
20610, -14120, -3975, 753, -8134, -1850, 292
20620, -17575, -5737, 2744, -8550, -2314, -981
20630, -19733, -4352, 6281, -11366, -3146, -1368
20640, -19310, -2015, 7581, -10974, -3066, -783
20650, -18245, 111, 6893, -8876, -2058, -239
20660, -18854, -534, 1436, -3930, 1669, -922
20670, -20317, -1844, -977, -3106, 2714, -1251
20680, -20669, -3014, -1665, -3821, 2478, -1241
20690, -19413, -2507, 2184, -6802, -2397, -1358
20700, -18404, -865, 4781, -7933, -5251, -1149
20710, -17593, 247, 6789, -8798, -7024, -818
20720, -18093, 541, 7996, -9190, -7893, -730
20730, -19653, -181, 6957, -9235, -7540, -1791
20740, -21629, -1520, 5889, -9798, -6772, -3105
20750, -23916, -3007, 5497, -10169, -5616, -4946
20760, -26452, -4662, 2501, -3782, 1680, -5667
20770, -24333, -3241, -3240, 2627, 7171, -2950
20780, -20830, -1416, -9154, 6714, 10344, -9
20790, -9026, -1199, -13651, 5429, 6337, 4567
20800, -3609, -2353, -14427, 2360, 3184, 5331
20810, -1659, -4053, -13675, -1719, 685, 3687
20820, -8659, -7118, -12555, -5474, -1065, 531
20830, -12048, -7040, -12311, -10872, -1042, -2029
20840, -15315, -5659, -10759, -13954, -1393, -1905
20850, -23965, 104, -56, -19313, -8382, -3099
20860, -27266, 2008, 6011, -17459, -9816, -2883
20870, -25841, 2409, 8323, -11837, -7111, -271
20880, -16214, 1358, 4451, -1686, 595, 5255
20890, -13516, 674, 1407, 461, 2482, 5833
20900, -12788, -320, -2033, 841, 3814, 5127
20910, -14784, -2278, -6052, -795, 4649, 2168
20920, -16006, -2881, -5609, -7220, 3257, 1135
20930, -16193, -2500, -4989, -8887, 1586, 774
20940, -15819, -1810, -4469, -9306, 721, 691
20950, -14646, -1106, -3449, -9055, 2132, 794
20960, -14177, -1175, -3019, -8768, 2625, 872
20970, -13839, -1304, -2647, -8476, 2558, 918
20980, -13848, -1592, -2176, -7829, 1647, 679
20990, -14368, -1588, -1917, -7616, 1267, 508
21000, -15108, -1428, -1589, -7395, 831, 522
21010, -15650, -1067, -1130, -7104, 324, 733
21020, -15989, -433, -257, -6094, -589, 914
21030, -15655, -438, -19, -5589, -858, 810
21040, -15121, -565, 56, -5264, -1029, 599
21050, -13683, -1023, 69, -5209, -1158, 92
21060, -13189, -1126, 129, -5258, -1313, -115
21070, -12831, -1123, 258, -5112, -1640, -226
21080, -12700, -756, 412, -4118, -1988, -274
21090, -12583, -502, 449, -3464, -1810, -214
21100, -12528, -533, 570, -2903, -1501, -254
21110, -13049, -849, 1131, -2023, -747, -674
21120, -13384, -986, 1466, -1537, -493, -856
21130, -13713, -1039, 1617, -988, -453, -998
21140, -14498, -1235, 976, -204, -310, -1143
21150, -14860, -1630, 276, -62, -55, -1195
21160, -15541, -2179, -279, 42, 61, -1326
21170, -16410, -2654, -736, 231, 67, -1382
21180, -18861, -3062, -1386, 1053, 397, -1360
21190, -20781, -2680, -1995, 1486, 630, -1271
21200, -22387, -1634, -2785, 1556, 283, -903
21210, -22715, 1344, -1701, 309, -2411, 253
21220, -22246, 2475, -1032, -96, -3335, 534
21230, -21535, 3002, -400, -357, -3215, 550
21240, -21082, 937, 1403, -455, -2617, -352
21250, -20700, -577, 2570, 367, -2542, -434
21260, -20538, -1435, 3682, 1108, -2890, -498
21270, -20662, -944, 4268, 1773, -2504, -308
21280, -20608, 765, 3919, 2154, -1297, 268
21290, -22423, 3113, -239, 2191, -530, 1343
21300, -22628, 2801, -2663, 1771, -2187, 1949
21310, -20494, -1228, -4737, 218, -4747, 1545
21320, -19376, -2439, -5351, -17, -4527, 419
21330, -17514, -2711, -5735, 22, -3486, -127
21340, -13139, -3343, -6390, -236, -454, -365
21350, -11824, -4211, -6457, -717, 1095, -798
21360, -11623, -5461, -6341, -1085, 2223, -1269
21370, -12505, -6699, -6342, -978, 2274, -1474
21380, -15611, -6600, -7235, 93, -654, -951
21390, -16260, -5721, -6883, 125, -1751, -815
21400, -17002, -4860, -6098, -91, -1302, -1036
21410, -16785, -2784, -3845, -361, 168, -752
21420, -15903, -2272, -2348, -248, -66, -464
21430, -14939, -2211, -859, 218, -768, -398
21440, -14531, -2713, 303, 841, -1816, -754
21450, -15490, -3258, 1508, 1076, -3441, -1540
21460, -15652, -3070, 1894, 497, -3514, -1434
21470, -15708, -2874, 1834, -162, -3428, -1348
21480, -15952, -2180, 903, -1544, -3144, -1673
21490, -15864, -1675, 473, -1985, -2803, -1592
21500, -15903, -1261, 49, -2177, -2705, -1623
21510, -16228, -851, 175, -2994, -3213, -2375
21520, -15200, -2206, 238, -1609, -2023, -2522
21530, -14022, -2372, -449, -227, 1171, -2184
21540, -13119, -2415, -1137, 202, 2033, -1859
21550, -11958, -2718, -1788, 526, 2026, -1664
21560, -11059, -3600, -2191, 310, -69, -1801
21570, -10957, -3801, -1945, 147, -1042, -1335
21580, -10917, -3697, -1672, -33, -1633, -628
21590, -11565, -2807, -349, -624, -2334, 202
21600, -12477, -2364, 308, -738, -2796, 496
21610, -13254, -2083, 1019, -792, -3649, 952
21620, -13801, -1895, 1662, -673, -4581, 1592
21630, -14328, -1533, 2386, 318, -5493, 3081
21640, -14408, -1410, 2673, 969, -5515, 3585
21650, -14705, -1408, 3111, 1512, -5223, 3594
21660, -16347, -2548, 4200, 1601, -2266, 2327
21670, -17434, -3873, 4642, 1150, -292, 1599
21680, -18296, -5168, 4706, 572, 1271, 1113
21690, -18813, -5705, 4397, 14, 2096, 792
21700, -19494, -3747, 3214, 265, 1338, 110
21710, -20291, -2741, 2200, 1404, 1055, 24
21720, -21557, -2694, 991, 2447, 1699, -186
21730, -21689, -2706, 2299, 1766, 1366, -185
21740, -21073, -1491, 4152, 786, -92, -170
21750, -19236, 1237, 8314, -512, -3732, 261
21760, -19019, 1440, 9763, -2957, -5516, 129
21770, -19350, 1126, 9688, -3136, -6677, -118
21780, -20096, 549, 8103, -2658, -6929, -117
21790, -21168, -3186, 4451, -381, -6206, -792
21800, -20628, -6255, 1529, 3188, -3668, -980
21810, -18924, -8109, -3387, 7942, 740, -421
21820, -14660, -7975, -12818, 11375, 5692, 556
21830, -12550, -7930, -14652, 9642, 11861, 1
21840, -11592, -7660, -14375, 6182, 10952, -1381
21850, -11708, -5854, -12816, 2689, 7553, -2302
21860, -12695, -2249, -9020, -1302, 1333, -1322
21870, -15028, -1253, -7220, -2143, 615, -1263
21880, -18193, -944, -5498, -2757, -501, -1483
21890, -22651, -1109, -838, -5467, -8651, -1779
21900, -22824, -731, 2761, -6837, -11745, -1085
21910, -21255, 166, 5818, -6045, -11705, 332
21920, -15815, 864, 5333, 2326, -2703, 2601
21930, -14736, -38, 1867, 6247, 2393, 2642
21940, -14076, -888, -1250, 7518, 4671, 2625
21950, -14172, -1971, -3662, 3933, 2824, 1621
21960, -14513, -2637, -3314, 1537, 1452, 969
21970, -14563, -3077, -2673, 123, 681, 661
21980, -13583, -2741, -1882, 195, 822, 571
21990, -13460, -2403, -1545, 711, 1255, 499
22000, -13480, -2009, -1121, 1100, 1387, 551
22010, -14371, -957, -255, 1753, 1212, 591
22020, -14838, -593, 53, 2027, 1417, 670
22030, -15291, -163, 254, 2219, 1748, 761
22040, -15552, 313, 435, 2282, 1958, 867
22050, -15404, 607, 853, 2208, 1638, 769
22060, -14985, 329, 1098, 2090, 1129, 578
22070, -14373, -139, 1209, 1916, 585, 459
22080, -13247, -1034, 1374, 1496, 76, 483
22090, -13035, -1344, 1304, 1552, 58, 425
22100, -13232, -1313, 1040, 1827, -51, 283
22110, -12955, -1055, 563, 2057, -160, 282
22120, -12758, -952, 572, 1975, -259, 231
22130, -12588, -732, 745, 1896, -492, 219
22140, -12459, -421, 930, 1905, -556, 268
22150, -12593, 343, 897, 2204, 84, 412
22160, -13111, 660, 735, 2333, 679, 408
22170, -13906, 868, 554, 2368, 1384, 360
22180, -14816, 1011, 366, 2324, 2057, 307
22190, -16925, 1235, 28, 2052, 3329, 114
22200, -17853, 1351, -299, 1797, 3710, 79
22210, -19093, 603, -986, 976, 3519, 212
22220, -19405, -664, -750, 601, 2921, 110
22230, -19371, -1683, -204, 514, 1967, 71
22240, -19124, -891, 484, 581, 1207, 277
22250, -19871, 393, 132, 295, 1751, 518
22260, -20853, 1402, -9, -331, 2364, 954
22270, -21754, 1551, 1355, -867, 2233, 1482
22280, -21143, 371, 2433, -274, 1738, 1415
22290, -19867, -803, 3343, 526, 1503, 1539
22300, -18720, -1440, 4296, 1195, 1541, 1770
22310, -18434, -1112, 5408, 2241, 1876, 2096
22320, -19100, -283, 4836, 2794, 1347, 2278
22330, -20454, 396, 2954, 3391, -56, 2543
22340, -24332, -1502, -1566, 4067, -4482, 3348
22350, -24224, -3101, -2896, 3802, -6517, 3880
22360, -22763, -4066, -3916, 3583, -7803, 3491
22370, -18197, -4139, -5276, 3535, -6763, 1814
22380, -16111, -4045, -5988, 3155, -5076, 1369
22390, -13626, -4501, -7904, 1368, 87, 425
22400, -13362, -5080, -8809, 75, 3519, -191
22410, -13663, -5816, -9247, -880, 6165, -798
22420, -16003, -6443, -8649, 484, 5075, -1488
22430, -16654, -5492, -8381, 2471, 1862, -1098
22440, -15836, -2041, -1477, 5409, -1900, 321
22450, -15614, -2358, 716, 7400, -2149, -588
22460, -15808, -2642, 1420, 7500, -2152, -1004
22470, -16075, -2806, 1819, 6731, -1607, -1361
22480, -15975, -2913, 1805, 5272, -696, -1585
22490, -15049, -2801, 1370, 1775, -1109, -2098
22500, -14826, -2518, 1261, 525, -2652, -2521
22510, -14844, -2103, 1065, 109, -3739, -2825
22520, -14983, -947, 159, 1090, -3492, -2703
22530, -15047, -394, -654, 1756, -2657, -2663
22540, -15242, -12, -1450, 1964, -1751, -2953
22550, -15412, 107, -1689, 1474, -1186, -3366
22560, -14886, -357, -1129, -320, -1398, -4072
22570, -14330, -860, -968, -703, -1289, -4307
22580, -13823, -1434, -1189, -617, -432, -4603
22590, -13765, -1816, -1137, -179, 2340, -5034
22600, -13509, -1614, -983, 30, 1999, -4679
22610, -13217, -1358, -498, 59, 717, -4275
22620, -13105, -1398, 814, 89, -1761, -3756
22630, -12947, -1839, 1271, 212, -2377, -3237
22640, -12550, -2324, 1634, 471, -2647, -2540
22650, -12006, -2166, 1261, 1026, -1621, -1062
22660, -12379, -2084, 739, 1402, -1348, -623
22670, -13232, -2034, 278, 1540, -1590, -161
22680, -14658, -2144, 260, 1291, -3212, 954
22690, -15120, -2370, 493, 1200, -3825, 1528
22700, -15524, -2610, 868, 1104, -4079, 1973
22710, -16790, -2389, 2846, 189, -3580, 2018
22720, -17547, -1758, 4766, -623, -2156, 1691
22730, -18209, -1139, 6583, -1410, 461, 1178
22740, -19350, -561, 7009, -1693, 3413, 38
22750, -19438, -386, 5159, -618, 952, 38
22760, -19323, -1072, 2714, 915, -1248, 234
22770, -19685, -3952, -2146, 2605, 140, -56
22780, -19833, -5106, -2224, 1410, 1270, -292
22790, -19811, -4993, -138, -423, 1617, -357
22800, -19296, -3497, 2994, -1879, 1318, -295
22810, -19309, -695, 8472, -3852, 283, -554
22820, -20966, -1221, 8882, -4338, -1184, -942
22830, -22911, -2299, 7108, -4506, -3960, -1631
22840, -23884, -3793, 5318, -4722, -6364, -2941
22850, -23187, -8600, 901, -1058, -2149, -5518
22860, -21512, -8681, -3916, 3087, 4129, -4695
22870, -18630, -6912, -9079, 5975, 9493, -2801
22880, -11833, -2842, -12504, 4167, 8311, 314
22890, -9241, -664, -10804, 1516, 2640, 778
22900, -11222, 1831, -5310, -2358, -5447, 62
22910, -12974, 1692, -3513, -2381, -5253, 16
22920, -15111, 744, -3384, -675, -2474, -524
22930, -17458, -934, -4984, 1686, 1486, -1128
22940, -19601, -3100, -7320, 2355, 4642, -265
22950, -19208, -2916, -6163, 719, 2235, 117
22960, -17850, -2537, -4224, -869, -576, 473
22970, -15511, -1802, -1442, -1016, -2452, 1158
22980, -14900, -1480, -1228, 209, -2259, 1514
22990, -14876, -1097, -1555, 1335, -1676, 1723
23000, -14972, -649, -1810, 1787, -982, 1731
23010, -15018, -544, -1653, 1125, -42, 1201
23020, -14977, -955, -1420, 689, 456, 782
23030, -15064, -1448, -1433, 520, 1006, 454
23040, -15043, -1921, -1776, 492, 1430, 277
23050, -14926, -1842, -1745, 471, 1343, 295
23060, -14892, -1713, -1634, 540, 1218, 276
23070, -15172, -1101, -1215, 954, 569, 380
23080, -15329, -641, -1124, 1389, 11, 586
23090, -15370, -94, -1071, 1752, -428, 857
23100, -15345, 347, -1119, 1945, -608, 1044
23110, -15317, 618, -1495, 1825, 200, 912
23120, -15235, 315, -1610, 1474, 778, 656
23130, -14691, -765, -1291, 936, 138, 197
23140, -14447, -1318, -966, 771, -424, 64
23150, -14263, -1676, -618, 728, -664, -1
23160, -14214, -1938, 50, 820, -523, -47
23170, -14330, -1878, 215, 1470, -205, -168
23180, -14288, -1687, 523, 1785, -212, -222
23190, -14026, -1334, 1013, 1986, -327, -218
23200, -13499, -152, 1651, 2544, -701, -276
23210, -13341, 409, 1645, 2726, -666, -348
23220, -13460, 765, 1531, 2709, -547, -497
23230, -14282, 572, 1180, 2397, -285, -796
23240, -14625, 421, 899, 2348, -228, -858
23250, -14922, 390, 519, 2400, -136, -946
23260, -15140, 324, 160, 2356, 17, -1033
23270, -15420, -72, 88, 1949, -74, -1213
23280, -15672, -509, 141, 1848, -146, -1269
23290, -16174, -980, -78, 1921, -46, -1344
23300, -17258, -1790, -1268, 2043, 396, -1387
23310, -17778, -1676, -1768, 1846, 477, -1365
23320, -18180, -950, -2053, 1472, 552, -1316
23330, -20148, 825, -2565, 493, 721, -1099
23340, -21180, 1396, -2217, -53, 289, -735
23350, -21742, 1357, -1073, -388, -226, -473
23360, -20024, -1706, 5210, 1887, 1576, -30
23370, -20155, -819, 5440, 2177, 2157, 306
23380, -20311, 200, 4855, 2548, 1703, 727
23390, -20746, 1868, 1463, 3566, -1852, 1368
23400, -21586, 2023, -789, 3838, -3416, 1595
23410, -22291, 1006, -2856, 3847, -4916, 1895
23420, -21537, -2163, -5838, 2651, -6200, 2190
23430, -20518, -3226, -6845, 1792, -5463, 1702
23440, -18872, -3596, -7477, 1055, -3998, 1228
23450, -16425, -3335, -7550, 461, -2065, 978
23460, -11178, -3435, -5644, -347, 697, 541
23470, -10130, -4613, -3939, -13, 397, -164
23480, -11097, -6140, -3052, 1092, -1274, -874
23490, -15701, -7088, -3718, 2904, -4760, -1187
23500, -17857, -5827, -4080, 2702, -4666, -1235
23510, -19190, -4003, -3914, 1768, -3122, -1182
23520, -19299, -2216, -3380, 674, -1088, -1081
23530, -16515, -376, -1578, -448, -99, -700
23540, -15384, -510, -827, -419, -1170, -728
23550, -14896, -1179, -257, -229, -2209, -882
23560, -15297, -2366, -455, -91, -2953, -1215
23570, -15468, -2539, -874, -456, -2632, -1233
23580, -15303, -2262, -2003, -1701, -2113, -1275
23590, -14829, -2052, -2084, -2468, -2033, -1315
23600, -14144, -1992, -1966, -3045, -2003, -1333
23610, -13073, -2310, -1786, -3337, -1784, -1429
23620, -12978, -2683, -1694, -3286, -1649, -1502
23630, -13227, -3077, -1553, -3264, -1514, -1613
23640, -14261, -3478, -734, -3861, -1536, -1859
23650, -14772, -3429, -100, -4214, -1761, -1966
23660, -15162, -3178, 472, -4476, -2105, -2014
23670, -15483, -2827, 897, -4686, -2325, -2032
23680, -15870, -2114, 1489, -5101, -2267, -2133
23690, -15755, -1781, 1742, -5027, -2195, -2163
23700, -15319, -1610, 1581, -4600, -2195, -2026
23710, -15203, -1431, 1071, -4174, -1851, -1988
23720, -15358, -1109, 448, -4402, -801, -1981
23730, -15327, -957, 472, -4754, -1037, -1860
23740, -15232, -816, 542, -5057, -1576, -1688
23750, -14384, -1016, 635, -5436, -2506, -1097
23760, -13751, -1427, 571, -5461, -2680, -732
23770, -12951, -1690, 380, -5423, -2723, -278
23780, -12278, -1749, 350, -5400, -2654, 62
23790, -12219, -2066, 597, -5134, -2394, 296
23800, -12711, -2239, 895, -5004, -2243, 397
23810, -13862, -2256, 1792, -4771, -2125, 793
23820, -14151, -2104, 2144, -4556, -2015, 1078
23830, -14416, -2112, 2495, -4371, -1573, 1227
23840, -15669, -2825, 3038, -4413, 16, 1043
23850, -16499, -3205, 3311, -4680, 679, 936
23860, -17256, -3539, 3662, -5054, 1123, 824
23870, -17940, -3783, 3854, -5323, 1318, 637
23880, -19044, -3931, 3073, -4724, 689, 288
23890, -19296, -4016, 2130, -3821, 532, 311
23900, -19806, -4241, 1013, -2754, 980, 155
23910, -20955, -5148, 639, -2122, 1666, -48
23920, -20912, -4838, 2170, -2916, 1527, -306
23930, -20296, -3606, 3906, -3514, 1072, -327
23940, -19431, -2183, 5501, -4061, 357, -230
23950, -18921, -1435, 7974, -5287, -2546, -499
23960, -19678, -2599, 7041, -5172, -4007, -1054
23970, -20676, -4026, 4857, -4746, -4894, -1563
23980, -22922, -5685, 1637, -4710, -4767, -3243
23990, -23473, -5349, 595, -4173, -3391, -3834
24000, -22945, -3935, -711, -2819, -765, -3669
24010, -19463, -213, -3489, -1111, 4568, -2129
24020, -17563, 568, -4164, 1588, 5339, -1369
24030, -14928, 295, -4584, 2448, 3570, -109
24040, -8689, -1133, -6869, 2736, -502, 2053
24050, -9710, -3060, -8313, 1880, -610, 746
24060, -11977, -4656, -9634, 827, -488, -630
24070, -14621, -3729, -9983, -713, -91, -1105
24080, -15486, -1673, -8364, -5184, 371, -713
24090, -16358, 758, -6061, -6555, -486, -471
24100, -17452, 2694, -3549, -6906, -948, -552
24110, -17586, 2479, 179, -5317, -284, -315
24120, -16245, 1167, 416, -3951, 553, 171
24130, -15126, 121, -551, -2693, 1790, 467
24140, -14533, -485, -1953, -2035, 2907, 598
24150, -14520, -1722, -3578, -2838, 2881, 270
24160, -14924, -2171, -3961, -3692, 2372, -93
24170, -15418, -2389, -4049, -4648, 2114, -425
24180, -15807, -2322, -3664, -6157, 2680, -721
24190, -15836, -2010, -3434, -6454, 3055, -722
24200, -15729, -1486, -3166, -6609, 3149, -618
24210, -15583, -451, -2387, -6608, 2308, -336
24220, -15663, -188, -2111, -6334, 1960, -281
24230, -15866, -209, -1961, -5911, 1925, -282
24240, -16218, -700, -2130, -5199, 2044, -392
24250, -14727, -1017, -1271, -5801, 97, -691
24260, -14583, -995, -677, -5704, -1184, -986
24270, -14712, -1008, -465, -5571, -1484, -1053
24280, -14797, -1038, -330, -5367, -1359, -1131
24290, -15329, -1119, -470, -5133, -667, -1335
24300, -15574, -977, -532, -4983, -530, -1317
24310, -15635, -791, -470, -4986, -622, -1271
24320, -15603, -684, -255, -4932, -907, -1302
24330, -15338, -761, 303, -4453, -1829, -1500
24340, -15286, -702, 293, -4134, -2108, -1629
24350, -15325, -680, 194, -3988, -2106, -1777
24360, -15540, -568, 4, -4039, -1999, -1974
24370, -15542, -576, -33, -3965, -2278, -1975
24380, -15431, -710, -104, -3700, -2766, -1939
24390, -15286, -1369, -659, -3009, -3328, -1829
24400, -15301, -1851, -1008, -2704, -3383, -1840
24410, -15514, -2439, -1189, -2415, -3402, -1913
24420, -16247, -3813, -1048, -1369, -3360, -2109
24430, -16728, -4434, -962, -507, -3564, -2240
24440, -17378, -4786, -933, 292, -3936, -2281
24450, -19041, -3667, -1046, 807, -4285, -2193
24460, -19569, -2988, -878, 831, -3595, -1573
24470, -19795, -2585, -511, 837, -2936, -1556
24480, -19669, -2268, 491, 1593, -3056, -1652
24490, -19613, -2122, 968, 2141, -3626, -1614
24500, -19929, -1858, 1340, 2613, -3975, -1581
24510, -21263, -564, 1104, 3035, -3002, -1083
24520, -22078, 62, 524, 3055, -1938, -652
24530, -22540, 354, -391, 3147, -1403, -195
24540, -21629, -110, -2204, 3271, -2715, 256
24550, -20582, 154, -2972, 3037, -3225, 247
24560, -19342, 750, -3817, 2442, -3282, 308
24570, -17864, 1276, -4664, 1390, -3065, 348
24580, -13524, 1871, -5529, -1914, -1917, 326
24590, -11345, 1701, -5409, -3522, -635, 210
24600, -9783, 1292, -5299, -4704, 1036, -16
24610, -10512, -1029, -4642, -5295, 1370, -1027
24620, -13123, -2588, -3713, -4367, -1679, -1410
24630, -16107, -3354, -2917, -2838, -4872, -1324
24640, -18173, -3288, -2485, -1603, -6115, -826
24650, -18813, -2102, -2372, -2279, -2498, 121
24660, -18818, -1412, -2575, -4082, -629, -113
24670, -18659, -897, -2118, -6365, -495, -541
24680, -17041, -22, 343, -9439, -2957, -621
24690, -16111, 475, 1030, -9472, -3519, -446
24700, -15279, 874, 540, -8977, -3015, -265
24710, -14789, 547, -2125, -9527, -50, -302
24720, -15078, -165, -3224, -10643, 739, -615
24730, -15445, -1137, -3879, -11659, 506, -1100
24740, -15675, -2921, -4174, -12759, -997, -1984
24750, -15329, -3386, -4009, -13162, -1496, -2113
24760, -14882, -3583, -3714, -13700, -1607, -2106
24770, -14498, -3346, -2960, -14628, -1574, -1858
24780, -14767, -2985, -2648, -14893, -1778, -1738
24790, -15254, -2472, -2410, -15118, -2024, -1702
24800, -16272, -1171, -1824, -15862, -2650, -1913
24810, -16700, -615, -1406, -16440, -3153, -2160
24820, -16899, -180, -1015, -16988, -3513, -2383
24830, -17040, -12, -794, -17320, -3480, -2543
24840, -17107, -407, -1251, -17102, -3153, -2747
24850, -17141, -755, -1705, -16747, -3067, -2729
24860, -16969, -1170, -2366, -16276, -2841, -2607
24870, -16493, -1800, -3874, -15700, -2171, -2245
24880, -15822, -2198, -4511, -15691, -2125, -1966
24890, -14955, -2599, -5033, -15730, -2176, -1776
24900, -13548, -3584, -5918, -15793, -1913, -1643
24910, -13075, -3825, -6036, -16044, -1894, -1673
24920, -12998, -3958, -5592, -16395, -2010, -1789
24930, -13780, -3842, -3639, -16347, -2190, -1804
24940, -14220, -4090, -2877, -15729, -2183, -1712
24950, -14467, -4635, -2352, -15025, -1987, -1659
24960, -14643, -5301, -1765, -13996, -1088, -1430
24970, -14617, -5180, -1370, -13845, -1130, -1279
24980, -14719, -5037, -780, -13837, -1694, -1223
24990, -15132, -4910, -157, -13834, -2403, -1379
25000, -16572, -4019, 1098, -13841, -3113, -1532
25010, -17004, -3111, 1744, -13595, -3204, -1264
25020, -17166, -2241, 2165, -12939, -3075, -983
25030, -17450, -1653, 1785, -11183, -1381, -963
25040, -17658, -2058, 1193, -10558, -421, -1149
25050, -17755, -2618, 607, -10140, -266, -1262
25060, -17274, -2618, 428, -9886, -1889, -1332
25070, -17140, -2141, 963, -9955, -2457, -1306
25080, -17307, -1548, 1548, -9879, -2888, -1191
25090, -17667, -907, 1978, -9679, -3469, -1087
25100, -18378, 31, 3113, -9851, -5348, -1064
25110, -18499, 1164, 3334, -9531, -6299, -141
25120, -18695, 717, 2813, -9003, -5931, 355
25130, -19237, -615, 2206, -8085, -4917, -4
25140, -20056, -2488, 1046, -6508, -2995, -783
25150, -20987, -4281, -602, -4529, -416, -1439
25160, -19869, -4298, -5697, -1438, 4080, 440
25170, -11679, -924, -8941, -2886, 1100, 4056
25180, -9591, -772, -9409, -5181, -661, 3473
25190, -11091, -1820, -8791, -7719, -1925, 1742
25200, -14423, -2759, -8097, -11257, -2226, 105
25210, -15219, -1946, -7751, -12755, -802, -48
25220, -15712, -892, -6953, -14224, 746, -234
25230, -17259, 531, -3803, -15785, 1425, -790
25240, -18002, 897, -2286, -14799, 1091, -507
25250, -17858, 1215, -2044, -12432, 1028, 327
25260, -16309, 1217, -3587, -8131, 1490, 1505
25270, -15748, 758, -3948, -7645, 1086, 1544
25280, -15443, 267, -4262, -7874, 384, 1377
25290, -15340, -194, -4860, -8525, 166, 1100
25300, -15318, -724, -5577, -10705, 1142, 494
25310, -15297, -876, -5652, -11754, 1263, 123
25320, -15328, -1123, -5326, -12552, 1060, -228
25330, -15225, -1373, -4963, -12890, 1102, -558
25340, -15170, -1544, -4814, -12722, 1339, -542
25350, -14913, -2083, -4197, -12373, 1108, -546
25360, -14825, -2104, -3743, -12260, 820, -525
25370, -14787, -1949, -3316, -12116, 687, -526
25380, -14869, -1640, -2890, -11912, 657, -510
25390, -15767, -543, -2195, -11213, 509, -429
25400, -16075, -15, -1978, -10743, 327, -319
25410, -16344, 383, -1747, -10299, 340, -321
25420, -16426, 231, -1737, -9475, 611, -733
25430, -16235, -26, -1847, -9129, 565, -938
25440, -15819, -208, -1831, -8839, 359, -990
25450, -14911, -817, -1731, -8056, -183, -1010
25460, -14550, -1075, -1709, -7609, -357, -1025
25470, -14239, -1403, -1672, -7243, -449, -1070
25480, -13848, -1601, -1307, -6950, -559, -1202
25490, -13812, -1339, -1009, -6381, -881, -1318
25500, -13717, -883, -660, -5997, -1084, -1219
25510, -13659, -305, -319, -5473, -1380, -1048
25520, -13457, 604, -37, -4109, -1507, -790
25530, -13474, 852, -186, -3470, -1156, -706
25540, -13548, 869, -357, -2926, -708, -676
25550, -14013, 192, -736, -1775, -261, -950
25560, -14382, -194, -804, -1212, -121, -1265
25570, -15593, -487, -773, -550, -123, -2007
25580, -16231, -255, -728, -488, -414, -2231
25590, -16780, 38, -745, -547, -663, -2359
25600, -17602, 640, -1173, -639, -421, -2497
25610, -17958, 818, -1569, -573, -307, -2390
25620, -18456, 711, -2055, -275, -310, -2233
25630, -19017, 536, -2632, 169, -237, -2044
25640, -20065, 651, -3625, 779, 84, -1645
25650, -20472, 916, -3522, 755, 6, -1461
25660, -20591, 1285, -2968, 682, -316, -1227
25670, -20564, 1668, -2120, 698, -811, -1012
25680, -20076, 1889, -190, 1143, -1538, -759
25690, -19651, 1741, 608, 1533, -1481, -713
25700, -19133, 1445, 1184, 1965, -1262, -620
25710, -18336, 953, 1595, 2417, -1047, -462
25720, -18629, 890, 687, 3425, -1052, 58
25730, -19624, 803, -1116, 3751, -928, 450
25740, -21099, 285, -3187, 3812, -966, 883
25750, -23166, -2639, -6190, 3416, -1941, 1274
25760, -22779, -3931, -7053, 3066, -2308, 1303
25770, -20761, -4614, -7157, 2571, -2088, 1116
25780, -16257, -4963, -5671, 1748, -164, -277
25790, -14496, -4917, -5192, 1790, 524, -958
25800, -12865, -5496, -4789, 2382, 1331, -2041
25810, -13244, -6167, -5327, 3035, 1482, -2402
25820, -14058, -6711, -6220, 3723, 873, -2568
25830, -14586, -6751, -7148, 4133, -69, -2327
25840, -14620, -6587, -7765, 3835, -677, -1619
25850, -14972, -6481, -7497, 3483, -426, -1740
25860, -15019, -6045, -6866, 3098, -118, -1921
