timestamp, ax, ay, az, gx, gy, gz
0,-11094,2610,3074,-3728,23114,-27910
10,-15895,1166,5884,-7855,22097,-26547
20,-17092,-230,6384,-8258,19547,-23318
30,-17095,-1618,5715,-7742,15668,-19347
40,-16434,-5160,5954,-5466,4999,-11226
50,-14207,-5929,4609,-3449,-988,-7866
60,-13284,-6370,2763,-2213,-4439,-4957
70,-11210,-6411,2065,-2223,-4578,-1769
80,-8702,-7128,2826,-4296,-2294,509
90,-10048,-7619,4359,-4963,-892,533
100,-11070,-7620,5387,-4906,-158,1523
110,-12509,-5868,4915,-2697,137,4968
120,-13000,-5716,5101,-2234,-1374,4534
130,-12543,-5520,5777,-719,-3794,4199
140,-12460,-5579,7089,-68,-3040,4465
150,-11407,-6074,8842,280,-1656,4816
160,-12845,-6729,8397,381,3434,5798
170,-13411,-7307,7450,-1758,3728,6850
180,-13245,-7164,6915,-3518,3840,7730
190,-15838,-6150,6271,-3291,4143,4961
200,-17416,-5491,6254,-895,448,1815
210,-20283,-5996,7079,190,-2904,-1309
220,-18143,-6494,8120,879,-3376,-1951
230,-17978,-7825,10044,-50,2281,-1936
240,-18327,-8288,11704,-980,4087,-1197
250,-19009,-8001,12814,-1593,2061,1326
260,-19728,-7746,12408,-1489,-519,2654
270,-20887,-8429,11785,-1826,-4390,3287
280,-21197,-8310,10473,-2341,-9374,3123
290,-21629,-6308,7592,-2541,-12147,909
300,-21013,-4525,5915,-3188,-10013,938
310,-21085,-4061,5279,-4992,-8918,321
320,-17841,-3231,3970,-6687,-8016,1405
330,-15712,-2870,4675,-7073,-8516,1416
340,-13886,-2068,4843,-6943,-8237,957
350,-15545,-180,4202,-6328,-6577,49
360,-17750,-95,3945,-5711,-999,657
370,-18896,-128,3733,-6343,824,943
380,-20459,-911,4166,-6614,2541,604
390,-22191,-1988,5387,-5387,4029,-2711
400,-21092,-2708,6322,-4209,4186,-2847
410,-17443,-3056,6203,-3393,4053,-2493
420,-16450,-3367,6797,-3334,3717,-2884
430,-15553,-2431,7422,-3830,1585,-2621
440,-14544,-2394,9604,-4929,-28,-1420
450,-15043,-2787,11165,-4674,-1555,-654
460,-13472,-3001,7746,-990,-4470,647
470,-13598,-3463,6538,-285,-4293,479
480,-12334,-5126,5317,947,-5752,-958
490,-12074,-5500,4689,1876,-6210,-1739
500,-11673,-5650,4381,2477,-5703,-1978
510,-12265,-6413,5854,2849,-5594,-2289
520,-13040,-5894,6320,3800,-6152,-2418
530,-13091,-5056,7334,4079,-7674,-3379
540,-12580,-4220,8188,4259,-8627,-4710
550,-10041,-3358,8700,4733,-6876,-7151
560,-9072,-3011,8218,4473,-4544,-7818
570,-8937,-2923,7990,3678,-1799,-7822
580,-8346,-2989,6845,2890,44,-7626
590,-7484,-3536,5396,3458,4298,-6950
600,-4938,-2988,4443,4584,6169,-7127
610,-7555,-3031,3799,5360,6700,-9781
620,-12488,-6651,7242,5041,3882,-13543
630,-8981,-4864,5019,5858,-102,-14964
640,-8092,-5190,6727,5498,433,-14410
650,-7430,-4592,6221,7907,-971,-12912
660,-3215,-3614,4696,11393,-3937,-10344
670,-2908,-2899,8615,5976,-1179,-7655
680,-3894,-4628,13761,-3521,1584,-4373
690,-6655,-8978,13683,-8982,5477,-2642
700,-10365,-10169,11384,-7566,10496,-5685
710,-15671,-9736,8690,-5510,13761,-10167
720,-21271,-9530,8138,-1080,11665,-6053
730,-15786,-9498,9644,135,6525,70
740,-11379,-9979,10963,625,3568,3637
750,-11063,-13074,12687,-410,4285,4826
760,-12071,-16568,13923,-5109,7060,3910
770,-11087,-20065,14882,-6006,6259,4316
780,-10747,-22841,16113,-4555,7610,3442
790,-20437,-18583,11671,4552,8994,-368
800,-26375,-14666,5958,8181,4567,-1211
810,-25653,-9894,861,9103,-1047,79
820,-23678,-1411,-666,4969,-3782,2513
830,-23807,1382,1494,2518,-1179,2393
840,-19805,2824,4460,1227,895,2677
850,-14206,1904,5196,1246,2374,2416
860,-14627,-3653,1919,254,3161,757
870,-14761,-5052,1356,-558,4133,2153
880,-14556,-6205,631,-321,4181,3023
890,-13379,-8881,398,1270,1608,2511
900,-12311,-9237,-1964,2085,911,1569
910,-15032,-7488,-5287,1218,2370,758
920,-16783,-8317,-4176,-1286,5485,-15
930,-13799,-3167,4078,2812,4332,-3544
940,-14265,-2514,3847,2058,4447,-2647
950,-13377,-2721,3775,-324,4165,-1954
960,-8851,-1555,2525,-964,4110,-1267
970,-10874,-2896,2949,-2974,7504,64
980,-11190,-4131,2812,-5396,8832,1447
990,-10696,-5339,3123,-5523,7520,1248
1000,-10237,-6459,1782,-4572,6062,1305
1010,-12200,-7983,-134,-3588,4821,1391
1020,-12011,-8967,818,-3902,5346,1343
1030,-12197,-9949,1368,-3130,5218,816
1040,-11937,-9682,998,-1951,4788,731
1050,-10290,-8841,1365,-1359,4288,2231
1060,-12673,-7877,1319,-933,4989,2094
1070,-14303,-8311,1379,-821,4098,1999
1080,-13935,-8415,1311,-205,1218,1053
1090,-13364,-6956,808,158,674,963
1100,-13436,-6665,550,-150,356,1108
1110,-13456,-6025,-27,-317,167,1607
1120,-13282,-5879,976,-1108,242,2474
1130,-13350,-6556,2013,-1574,420,2693
1140,-13180,-7600,3253,-1733,433,2734
1150,-14321,-8056,3891,-1517,449,2407
1160,-14811,-9840,3966,-1779,547,2967
1170,-15594,-11235,3225,-1885,-103,3005
1180,-15297,-12228,270,-1120,-2056,2543
1190,-15351,-12001,-720,-539,-2287,1706
1200,-15344,-11916,-1289,-52,-2317,815
1210,-14974,-12536,-779,64,-2284,13
1220,-15384,-13439,1877,-148,-891,-1148
1230,-15241,-12829,2890,320,-1380,-1805
1240,-15481,-12267,3838,697,-2245,-2477
1250,-17147,-11827,5247,666,-3124,-2762
1260,-18212,-11507,4851,583,-2405,-2147
1270,-20476,-11141,3578,285,-1591,-2029
1280,-22753,-10299,2299,-239,-1698,-2581
1290,-20830,-9823,988,-348,-4166,-3880
1300,-18700,-8871,83,-18,-5365,-4518
1310,-17925,-7871,-412,744,-4907,-4798
1320,-17874,-5532,-1189,2106,-4211,-4040
1330,-17488,-4102,-1561,2312,-5707,-3722
1340,-15731,-3456,-1167,2262,-7609,-3563
1350,-15468,-2527,-933,4035,-9290,-3816
1360,-15882,-2927,-1365,5090,-9096,-3959
1370,-16286,-3257,-1884,5569,-7286,-4095
1380,-17475,-4381,-1973,5263,-4730,-4405
1390,-19940,-5883,-949,3621,-1418,-3723
1400,-10954,-6574,4403,2419,-2194,-2522
1410,-16313,-7195,6008,2223,2609,-1546
1420,-17536,-9264,8326,2939,-934,-861
1430,-18473,-9435,9581,5022,-4628,1054
1440,-16675,-7120,7492,7481,-5524,2637
1450,-14320,-5128,3506,4543,-992,1493
1460,-13841,-6398,3327,1980,1457,439
1470,-8089,-8003,5179,1355,2246,-366
1480,-11226,-7945,2722,2538,3711,-164
1490,-11966,-7490,2972,2666,3624,2753
1500,-13046,-7703,3240,1028,172,1417
1510,-12905,-7230,3421,838,-2102,-260
1520,-10976,-4703,2348,2777,118,-645
1530,-9453,-1941,3180,3869,1224,-728
1540,-9874,-2776,6460,3817,4910,699
1550,-11187,-2766,1177,4019,3948,87
1560,-9154,-1884,2779,1915,1035,471
1570,-8116,-1209,3265,998,737,836
1580,-9691,-2579,3986,-680,2226,1169
1590,-10108,-4296,4772,-628,909,-229
1600,-9512,-4554,5077,831,-566,-704
1610,-11636,-4125,3542,2933,-1293,-1287
1620,-11329,-5725,4560,1889,-3422,-2217
1630,-9815,-6284,5448,1495,-3600,-2713
1640,-10758,-5112,4502,3354,-1803,-5137
1650,-11645,-4568,3712,4271,-2593,-5813
1660,-10010,-7489,5808,2678,-4490,-5263
1670,-10128,-10179,8202,49,-3196,-3484
1680,-14204,-10804,8999,-788,-422,-1492
1690,-14531,-10164,8220,7,-1515,-2049
1700,-14417,-9688,7009,855,-1739,-2711
1710,-17784,-8326,1597,672,153,-2435
1720,-17893,-8083,1225,-1349,941,-2071
1730,-18345,-9223,6269,-3654,-935,-2561
1740,-18039,-10885,10166,-3415,-849,-1470
1750,-16391,-16485,14852,-1654,-1936,1784
1760,-16189,-18511,15003,-542,-1792,1281
1770,-16597,-19757,14603,301,-1848,67
1780,-19506,-18909,13696,2928,-3270,138
1790,-20409,-16192,11341,4944,-4907,680
1800,-20999,-12580,6062,6047,-7188,910
1810,-19215,-6459,-318,1386,-7250,2975
1820,-17605,-3146,-1394,-1578,-4932,3791
1830,-17954,-1106,1486,-4320,-2439,3994
1840,-13215,-385,1177,-2180,-2931,2674
1850,-12973,-2577,3530,-2301,415,2716
1860,-14150,-6464,646,-1228,3310,1491
1870,-15838,-7445,41,-252,6483,-62
1880,-13968,-6962,-3125,250,8028,-1059
1890,-15448,-7316,-3768,-1554,12350,-1383
1900,-15478,-8748,-2042,-4067,15610,-1279
1910,-16242,-9389,-432,-3182,13051,-1891
1920,-14885,-7280,349,-1870,9028,-1920
1930,-17000,-6191,314,-252,5995,-2014
1940,-14066,-4721,4,-324,-3603,-80
1950,-14565,-2271,2673,-1340,-3122,-242
1960,-12232,-624,4797,-1805,-2073,471
1970,-10307,1012,5504,-597,1236,-2
1980,-10226,-325,4184,-636,3510,-601
1990,-10950,-2122,3033,-1566,4521,-1106
2000,-11359,-3194,853,-2256,4559,-1518
2010,-12370,-5917,-547,-3545,5693,-1500
2020,-12771,-6632,-1141,-3616,6746,-1000
2030,-12584,-7318,-1638,-3334,7912,-346
2040,-12033,-8157,-1958,-2836,8383,-434
2050,-12740,-8799,-3651,-984,9113,-1756
2060,-11635,-9438,-2148,-1625,9437,-1054
2070,-12885,-10541,417,-2780,7288,322
2080,-12941,-9670,189,-2713,6033,779
2090,-13206,-8712,128,-3216,5832,1488
2100,-14016,-7456,-157,-3420,5596,1881
2110,-12356,-5635,-1982,-2451,1190,2774
2120,-12376,-6056,-1292,-2839,-2406,2875
2130,-11226,-5902,-1827,-2845,-5976,2496
2140,-12988,-8243,7232,-6473,7722,5296
2150,-15949,-8425,5017,-4491,6264,3319
2160,-14420,-8641,2738,-3129,1479,2833
2170,-13988,-9371,261,-3403,-127,2507
2180,-14015,-10312,-688,-3233,2156,2118
2190,-14905,-11054,-2187,-2137,3232,1504
2200,-15517,-11450,-2762,-1222,4087,812
2210,-14911,-11482,-1597,-321,5074,151
2220,-15441,-11503,-1705,77,4390,-1265
2230,-17101,-12328,-1220,368,4289,-2647
2240,-20555,-13140,-526,1707,2573,-3862
2250,-21354,-13278,-1388,2131,718,-3097
2260,-21022,-12316,-1478,1509,-2698,-2653
2270,-20806,-11345,-651,524,-4813,-2262
2280,-20539,-9959,1057,-766,-6346,-2226
2290,-20782,-9595,608,-729,-6357,-2514
2300,-18864,-9920,-2236,-965,-5771,-3625
2310,-19953,-9108,-3900,-578,-5761,-3846
2320,-19038,-8182,-4592,960,-9062,-4079
2330,-15093,-4459,-4553,2851,-14464,-3533
2340,-13840,-2869,-3894,2790,-14784,-3218
2350,-12424,-2118,-3348,2666,-13887,-2821
2360,-11850,-1515,-3631,2091,-11106,-2195
2370,-14323,-3451,-2702,193,-4251,-1104
2380,-16391,-4276,-2507,96,-3179,-1500
2390,-17902,-3945,-2755,504,-3751,-1901
2400,-18279,-4188,-1916,4,-7264,-1941
2410,-18360,-4844,-198,-312,-9128,-2611
2420,-18078,-5026,1125,-187,-10897,-3059
2430,-15847,-5309,2570,-2,-11588,-1265
2440,-14422,-5438,3231,-673,-10472,-466
2450,-13698,-6299,3684,-1294,-9254,-71
2460,-12543,-7154,4533,-1514,-6663,726
2470,-11835,-7496,1950,-1209,-586,1139
2480,-11910,-8313,2234,-1494,1718,615
2490,-11786,-9032,2730,-719,3165,-18
2500,-11525,-9543,3029,740,2735,-742
2510,-12307,-8945,1791,2669,-239,-882
2520,-12152,-8193,1444,2353,-798,221
2530,-11809,-5978,3288,1562,216,2758
2540,-11198,-5548,3457,1734,219,3845
2550,-11664,-4592,2977,1795,-119,4356
2560,-11418,-2687,3372,68,-3808,2439
2570,-10122,-2334,4047,-109,-4133,1538
2580,-9142,-1611,4155,423,-2719,771
2590,-9886,-1593,3943,464,-960,-472
2600,-8236,-3548,2992,226,-2837,-1331
2610,-10072,-4676,3408,-40,-1666,-2071
2620,-10121,-5640,3432,-730,-482,-2033
2630,-10785,-5443,3663,-142,-1307,-2984
2640,-11020,-5900,4353,-67,-2112,-3681
2650,-11042,-6676,5384,226,-2178,-3770
2660,-10990,-7270,5540,945,-1684,-3217
2670,-11803,-8457,6473,1115,-1022,-2648
2680,-14216,-9161,7594,578,-1261,-2870
2690,-16086,-9791,8311,636,-1904,-2825
2700,-18352,-10965,5791,2158,-3344,-3247
2710,-19449,-10414,2051,1834,-2782,-3157
2720,-22003,-10368,1682,-346,-99,-1728
2730,-19023,-11191,9147,-2653,2634,1209
2740,-16015,-13219,10679,-2166,2580,1523
2750,-13175,-18296,8193,2311,2083,-876
2760,-20557,-18865,7158,6668,773,-1670
2770,-24707,-12813,583,8988,-4471,-115
2780,-24008,-6724,-3687,8094,-4452,987
2790,-22865,-1797,-4334,5338,-3154,2426
2800,-19721,1403,-2635,2180,-3201,3825
2810,-12455,5244,3049,-587,-3223,3493
2820,-11356,6092,4160,-494,-2104,2172
2830,-12711,4552,2750,42,-833,775
2840,-15918,-1966,605,-193,1543,93
2850,-16974,-5264,686,82,1517,315
2860,-16450,-8329,207,813,662,62
2870,-14338,-8867,-6236,-180,2710,-203
2880,-14985,-8420,-6272,-4650,6417,1059
2890,-13416,-8683,-2719,-8286,7599,1803
2900,-13813,-7499,-528,-7876,6362,672
2910,-14857,-7244,837,-1596,-331,-2093
2920,-15911,-8596,1731,663,-1046,-3045
2930,-14598,-7857,2536,2227,-1165,-3553
2940,-15369,-4846,4091,3234,-1365,-3264
2950,-14796,-4454,3412,2831,-2084,-2000
2960,-13173,-3591,1949,2564,-1414,-1308
2970,-12177,-2638,1036,1552,-522,-1460
2980,-12031,-3727,2036,-368,-613,-1463
2990,-11600,-3251,379,109,-1494,-1284
3000,-10546,-4203,-546,-1622,798,-727
3010,-12326,-5842,1384,-2473,2088,-1200
3020,-12692,-5653,1396,-1840,1221,-2567
3030,-13313,-7392,2169,-920,1955,-3304
3040,-13666,-9094,710,-2346,5445,-1457
3050,-13261,-10226,446,-2347,2723,-197
3060,-12149,-9497,155,-2371,-928,409
3070,-13231,-7116,1456,-2122,-1032,1626
3080,-12474,-7036,1758,-2463,76,2374
3090,-12367,-6955,2438,-2925,-43,2464
3100,-12852,-6983,2057,-2936,-287,2217
3110,-13440,-7744,1721,-3681,-482,2987
3120,-13339,-8592,2586,-4270,-930,3049
3130,-12893,-9114,3258,-4161,-823,2935
3140,-12982,-9045,3956,-3678,-324,3019
3150,-12967,-8925,3882,-3496,-539,3343
3160,-13156,-9430,3653,-3481,-1071,3441
3170,-14824,-10338,1961,-3087,-1641,3350
3180,-15545,-10577,1736,-3207,-1630,3150
3190,-15421,-10901,1725,-3163,-1510,2744
3200,-14908,-10892,1485,-2779,-1322,1936
3210,-14777,-12246,-171,-2444,863,-491
3220,-14444,-13257,645,-2230,2039,-1392
3230,-14635,-14791,2852,-222,2488,-2558
3240,-15698,-13946,4228,400,1360,-2310
3250,-17442,-11593,6606,-19,-412,-2461
3260,-22299,-9399,4517,-1598,-280,-2122
3270,-21967,-8402,3356,-3675,-3067,-2031
3280,-21914,-8156,3250,-4985,-5256,-2706
3290,-21975,-7534,2231,-4932,-5412,-2967
3300,-20888,-6330,-861,-4091,-5775,-3006
3310,-18393,-5330,-2210,-4147,-6245,-2282
3320,-16917,-3973,-2122,-4786,-6546,-1940
3330,-14667,-2659,-205,-3893,-7202,-2467
3340,-14880,-2386,-646,-3056,-7535,-2772
3350,-15728,-2260,-955,-2383,-7215,-2762
3360,-16880,-3484,-730,-1615,-6460,-2624
3370,-19919,-5040,749,-1084,-4826,-1961
3380,-19573,-6301,2235,-588,-3426,-1764
3390,-20495,-6658,2258,-295,-1109,-1638
3400,-18123,-6908,3762,-2560,1002,-655
3410,-17526,-5622,4361,-2874,1295,-308
3420,-17259,-4700,4045,-2980,35,407
3430,-16245,-3296,2440,-4021,-2813,1971
3440,-16178,-2919,2496,-4671,-2806,2387
3450,-17000,-2484,2527,-4698,-3026,2467
3460,-12859,-1153,1682,-2751,-4475,1980
3470,-11692,-2593,1601,-3029,-3773,1186
3480,-11102,-4176,3047,-4176,-3024,1226
3490,-11127,-6641,4263,-3708,-2295,1114
3500,-11669,-6845,2946,-3067,-1651,1363
3510,-11225,-6793,1752,-3059,-1484,1557
3520,-10972,-5649,2515,-3961,-1249,1709
3530,-10625,-4829,3049,-3712,-1544,1379
3540,-10495,-4148,3028,-3248,-1733,926
3550,-10038,-3799,2689,-3104,-1825,712
3560,-9395,-4101,3219,-3530,-1544,179
3570,-10146,-4672,4413,-3782,-1457,-115
3580,-8535,-5245,4062,-3142,-1751,-239
3590,-9687,-5879,3814,-3335,-338,-246
3600,-9444,-6248,4380,-3652,-269,-442
3610,-9843,-6665,4794,-3389,-552,-1084
3620,-10101,-7070,5023,-2539,-1265,-1456
3630,-10927,-7675,5095,-449,-1727,-1648
3640,-11140,-8089,5258,189,-2043,-1860
3650,-16673,-11155,8521,1869,-1699,-3725
3660,-17484,-10915,6626,2265,-1603,-3649
3670,-19403,-9850,2438,1868,-850,-3388
3680,-22110,-9667,2639,-2146,2912,-1521
3690,-20687,-10648,7179,-3180,5249,-504
3700,-17654,-12486,10292,-3189,5872,23
3710,-16786,-13802,12301,-2890,4939,67
3720,-17117,-15247,11524,-587,1611,-441
3730,-18476,-14826,10425,905,736,-563
3740,-20163,-14258,9917,2228,-598,-381
3750,-22050,-8484,3022,5630,-3774,397
3760,-21648,-4337,-2493,5444,-4285,682
3770,-22344,-1798,-5237,3817,-3488,1202
3780,-22440,107,-6146,2027,-2784,2202
3790,-17934,1605,-2624,-1269,-2170,4084
3800,-15889,1133,1569,-1321,-2671,3594
3810,-14867,-349,4277,481,-3684,2776
3820,-13939,-4692,511,2206,-4263,432
3830,-14617,-8441,156,-309,-3468,-845
3840,-15757,-9707,-1723,-1422,-2238,-1511
3850,-15827,-8160,-4941,-2087,-2101,-945
3860,-15470,-6664,-4067,-3457,-1551,-1146
3870,-15442,-5857,-2870,-2704,-327,-1908
3880,-15527,-6143,-647,-1791,339,-3395
3890,-16302,-6021,943,-1813,142,-3804
3900,-16551,-5801,2278,-1473,-508,-3863
3910,-15669,-3973,2774,618,-2719,-3582
3920,-15027,-2896,2460,946,-3297,-3288
3930,-14339,-2249,1902,569,-3391,-2942
3940,-12064,-2587,206,-245,-3691,-2601
3950,-12103,-2890,130,-2218,-4261,-2447
3960,-11683,-3743,-712,-2895,-4347,-2367
3970,-13065,-4132,-1180,-3567,-3378,-1955
3980,-11590,-4004,-386,-5271,-3085,-1434
3990,-11151,-4548,-754,-5110,-2959,-1284
4000,-10748,-4878,-980,-5406,-2454,-1062
4010,-11484,-7023,-383,-5619,-1508,-649
4020,-11983,-8160,228,-5696,-1380,-105
4030,-11609,-8360,799,-5551,-1825,-29
4040,-11338,-8044,808,-5175,-1926,143
4050,-12669,-8000,1976,-5392,-1231,618
4060,-11599,-8283,2582,-5440,-1586,1278
4070,-11621,-7792,2102,-5361,-1833,1527
4080,-12189,-7384,1983,-5695,-630,2265
4090,-12182,-7768,2983,-5843,-475,2491
4100,-12805,-7242,3499,-5560,-708,2808
4110,-10940,-7921,4359,-5212,-2005,2966
4120,-10922,-8057,4529,-5243,-1419,2824
4130,-11255,-8758,4447,-5090,-728,2839
4140,-12968,-12000,3634,-4684,-493,2790
4150,-13980,-12541,2395,-3637,-269,2589
4160,-14567,-12666,820,-2460,-33,2294
4170,-15070,-11105,-37,-2135,240,2284
4180,-15554,-9366,3672,-3094,975,2294
4190,-16692,-10644,4827,-3209,1230,1712
4200,-17279,-11784,5163,-2998,1047,1291
4210,-16323,-12012,5201,-2563,-893,-116
4220,-16955,-11771,4750,-2052,-1367,-581
4230,-17434,-10582,4912,-1708,-1478,-854
4240,-17657,-9800,5156,-1882,-2061,-952
4250,-19094,-10647,5749,-3562,-3412,-895
4260,-19955,-11409,4847,-4353,-4423,-1012
4270,-21375,-11330,3318,-4745,-5309,-1170
4280,-21189,-10268,1883,-4687,-6237,-1122
4290,-19758,-7418,535,-4613,-7256,-1335
4300,-19276,-6496,-780,-4364,-6821,-1517
4310,-18724,-5519,-2034,-4174,-6391,-1577
4320,-15244,-4380,-1406,-4628,-6722,-1245
4330,-13861,-3596,-1199,-4602,-7364,-1537
4340,-13370,-4081,-1570,-4224,-7647,-2021
4350,-15745,-4719,-1923,-2043,-6137,-2567
4360,-18199,-6735,-1391,-1436,-4849,-2829
4370,-17697,-8367,-467,-848,-4666,-2517
4380,-19332,-10076,2449,465,-2949,-2135
4390,-18624,-9548,3392,650,-2553,-1587
4400,-17562,-8554,4428,-65,-2037,-1269
4410,-16808,-7637,5880,-1144,-1594,-989
4420,-16222,-4799,4746,-419,-2829,-278
4430,-15270,-3035,3262,-408,-3502,80
4440,-14288,-2333,2482,-1440,-2722,859
4450,-14904,-4614,1674,-3546,-3911,2633
4460,-12825,-4807,1894,-3625,-4967,2859
4470,-10974,-5254,1316,-2826,-4588,2602
4480,-10698,-8111,2233,-1954,-3588,1865
4490,-9759,-8120,3110,-798,-4076,1721
4500,-8493,-7512,3260,1045,-4297,1220
4510,-10492,-5693,2518,1661,-1917,636
4520,-11739,-5242,3431,1339,-1231,1050
4530,-11351,-5584,3295,1604,-1912,1337
4540,-10319,-5430,5313,2324,-3629,-29
4550,-8736,-4337,3953,1699,-2708,-605
4560,-9458,-4526,4137,796,-2064,-1044
4570,-8726,-5186,4059,301,-1427,-712
4580,-8577,-5816,4872,436,-2535,-1482
4590,-8802,-5637,5057,853,-2308,-1291
4600,-8088,-5783,5043,789,-1958,-1706
4610,-10708,-7331,6429,846,-1625,-2075
4620,-11042,-8151,7453,1313,-2067,-2651
4630,-12446,-9655,8206,2575,-2933,-3657
4640,-12602,-9028,8901,5344,-4139,-4889
4650,-12396,-8183,7936,5435,-3010,-4495
4660,-12335,-8798,6836,4153,-2396,-3948
4670,-14479,-9315,5274,3008,-2048,-3579
4680,-19109,-8699,2635,1372,-622,-2534
4690,-21327,-9582,6600,-409,1156,-1484
4700,-17812,-9665,10168,-1117,1607,-564
4710,-13383,-14728,13431,-925,760,480
4720,-14321,-15675,14270,249,279,-184
4730,-16167,-16801,13892,2359,-881,-1370
4740,-16447,-16878,12937,4553,-2660,-2152
4750,-18966,-15338,14432,5667,-2749,-2569
4760,-20509,-12492,11330,7247,-4505,-3017
4770,-23149,-6682,2607,7752,-4888,-1915
4780,-22932,-3852,-395,6321,-4887,-746
4790,-21680,-879,-2494,4117,-4740,128
4800,-16011,797,1665,-2114,-1686,2960
4810,-15085,-722,5468,-2783,-133,3298
4820,-13674,-1689,6658,-827,-1412,1715
4830,-11472,-3439,3800,1673,-2193,966
4840,-14152,-5924,3503,914,-1639,250
4850,-15047,-7459,2435,1252,-1569,-91
4860,-15469,-7639,1036,2273,-993,-378
4870,-14402,-7640,106,739,467,-335
4880,-14045,-7657,374,-617,1175,-169
4890,-13129,-7624,1365,-1761,1722,-318
4900,-13065,-6088,3354,-2862,3388,-1389
4910,-12342,-6095,3987,-3130,3549,-1640
4920,-12667,-5424,4099,-2993,3690,-1874
4930,-12880,-4351,3898,-2653,3484,-1624
4940,-13194,-2693,3018,-3146,3078,-370
4950,-12957,-2783,3062,-3855,3539,142
4960,-13255,-3820,2601,-4294,4120,594
4970,-11436,-5218,2875,-5327,3281,1164
4980,-11536,-5374,2562,-5498,2982,1107
4990,-10846,-5545,2093,-5811,2556,1229
5000,-11415,-6198,697,-6839,2735,1642
5010,-10837,-6986,938,-7186,2825,2177
5020,-10884,-8079,2360,-7068,2921,2032
5030,-11152,-8415,2192,-5910,2854,1518
5040,-11768,-8701,2120,-5733,3032,1472
5050,-12030,-8838,2350,-5804,2927,1557
5060,-12984,-9093,2807,-5687,2292,1364
5070,-12783,-8852,2866,-5371,2159,1409
5080,-13302,-8780,2818,-4918,1955,1573
5090,-12945,-8211,2594,-4334,1454,1857
5100,-11989,-6458,3159,-3861,577,1692
5110,-14436,-7691,3919,-3783,190,1736
5120,-9661,-6229,4241,-3305,-1496,2199
5130,-12121,-6736,4940,-3785,612,2596
5140,-13058,-7550,4395,-3985,1050,2756
5150,-12842,-8503,3436,-4073,1287,3140
5160,-13867,-10486,2133,-3832,1130,2928
5170,-13974,-11259,-169,-2282,2703,1595
5180,-14636,-11992,185,-2289,3888,735
5190,-15213,-12996,2069,-2628,4444,283
5200,-16995,-12413,3420,-3058,4505,-355
5210,-19334,-14409,3875,-2020,2394,-805
5220,-16279,-13446,2165,-688,-38,-1265
5230,-17357,-12288,5081,-709,-137,-1583
5240,-16587,-10610,4878,-251,-423,-1681
5250,-18793,-10067,5240,-892,-697,-1660
5260,-20463,-10474,4475,-3314,-2721,-2238
5270,-22368,-11157,4697,-4396,-3804,-2582
5280,-20433,-10824,4202,-4037,-5926,-3052
5290,-21118,-9504,811,-2824,-7352,-3554
5300,-19201,-7210,-1006,-1887,-8589,-4114
5310,-17168,-5927,-2485,-1424,-7336,-3443
5320,-17340,-5531,-2402,-1422,-5458,-2816
5330,-15358,-4034,-2279,-788,-5870,-3061
5340,-12392,-2273,-3784,-189,-6246,-3274
5350,-13734,-2901,-2813,183,-5858,-3244
5360,-15751,-5351,-2392,682,-5653,-2696
5370,-18866,-8089,563,449,-4573,-2187
5380,-20056,-8053,965,516,-4007,-1799
5390,-18428,-7913,1680,150,-3465,-1603
5400,-18474,-8317,3407,-1210,-364,-1073
5410,-17742,-7414,4450,-1863,-642,-1145
5420,-16342,-6617,4331,-1681,-1340,-916
5430,-16581,-4927,3650,-2191,-4009,427
5440,-14906,-5175,4067,-2523,-4921,1038
5450,-10483,-7224,2157,-1079,-2231,2120
5460,-9993,-7556,2037,-152,-1174,2309
5470,-9819,-7897,2080,474,-870,2128
5480,-9922,-7831,2483,1261,-1051,2089
5490,-10479,-6889,3053,2600,-1229,1350
5500,-11588,-6262,3818,2775,-559,1217
5510,-11093,-5446,4118,3113,-357,1511
5520,-10582,-3871,3252,2706,399,1474
5530,-9874,-3484,3349,1813,799,1505
5540,-12967,-3434,3608,1079,522,1376
5550,-9349,-3497,3845,1262,-1331,455
5560,-9678,-4670,4313,25,-65,-57
5570,-8016,-4079,3545,-884,9,-686
5580,-8141,-4046,3385,-1642,564,-1202
5590,-7442,-3841,3690,-2753,704,-1691
5600,-8885,-5578,4613,-3262,399,-1974
5610,-10447,-9226,7601,-2795,230,-2073
5620,-12743,-10873,8887,-457,111,-1631
5630,-9678,-9942,6518,1895,-341,-830
5640,-10770,-9433,6277,-93,-116,-1466
5650,-12303,-9614,5674,-511,300,-1794
5660,-13717,-9254,4696,-815,243,-1955
5670,-16558,-10800,4206,5,-530,-3159
5680,-20888,-11072,1829,384,-200,-3318
5690,-24495,-12129,5773,-1695,1878,-386
5700,-23059,-12366,11227,-2328,2864,432
5710,-21203,-12825,13471,-2195,3900,1204
5720,-16209,-16899,11266,-817,553,720
5730,-16976,-17368,9431,650,-1129,-361
5740,-19142,-17178,7853,2505,-1231,-746
5750,-22255,-15432,8045,4055,-545,-274
5760,-22602,-8137,1602,6402,-4256,1027
5770,-21766,-4196,-2350,5762,-5280,1421
5780,-21508,-1598,-4015,3761,-4582,2254
5790,-18136,2545,-4382,1175,-3283,3510
5800,-15318,3059,-1353,-3432,-2362,4576
5810,-13289,2631,1551,-2893,-2419,3414
5820,-13107,267,1624,-1075,-1996,2204
5830,-12412,-6798,547,-1318,-290,2415
5840,-13131,-8889,-400,-2130,865,2331
5850,-14161,-9346,-2244,-2696,1091,1966
5860,-15361,-8793,-3731,-3451,955,1674
5870,-15579,-8257,-4331,-3407,1662,692
5880,-14785,-8448,-3371,-2919,2249,-203
5890,-13363,-8483,-1468,-2770,3079,-1079
5900,-12315,-6523,1256,-2244,3330,-2301
5910,-13124,-5618,1879,-2036,3215,-2370
5920,-14563,-4093,1896,-1483,2725,-2359
5930,-14274,-3786,1624,-195,-11,-1945
5940,-13532,-3605,991,-114,-344,-1605
5950,-12900,-3799,973,-842,-70,-1306
5960,-11664,-5141,705,-1907,24,-1239
5970,-11861,-5902,266,-1745,106,-1504
5980,-12868,-6558,71,-1632,287,-1485
5990,-12451,-7610,1060,-877,-1477,-1629
6000,-12639,-7328,850,-168,-1945,-1904
6010,-12442,-7648,605,-100,-1949,-1914
6020,-11397,-8160,715,-398,-1705,-1817
6030,-11783,-8161,923,-570,50,-1312
6040,-11121,-8294,1175,-591,42,-1087
6050,-11137,-8474,1524,-725,-9,-831
6060,-10924,-8488,1923,-996,-156,-177
6070,-11097,-8110,1699,-1055,-118,105
6080,-11328,-7680,1395,-1240,500,590
6090,-11668,-6805,1484,-1551,2188,1368
6100,-11476,-6750,2086,-1741,2372,1687
6110,-11290,-6836,2754,-1822,2260,1944
6120,-11153,-7016,3352,-1950,2113,2279
6130,-11613,-8068,3329,-2343,2379,3216
6140,-12424,-9149,2777,-2487,2708,3404
6150,-14979,-10649,993,-2211,2088,3057
6160,-15947,-11232,635,-1870,1894,2832
6170,-16320,-11700,691,-1558,2107,2545
6180,-16609,-11694,800,-777,1905,1995
6190,-17101,-11675,297,-539,1394,1250
6200,-17839,-11307,576,-495,946,247
6210,-18029,-11359,1683,-641,631,-373
6220,-18079,-11948,3963,-1247,59,-857
6230,-17967,-12147,4125,-1834,-436,-872
6240,-18474,-12208,3511,-2602,-780,-1010
6250,-21216,-11844,897,-3714,-1672,-1890
6260,-22110,-11246,594,-4018,-1982,-2188
6270,-21684,-10183,-563,-3583,-2110,-2335
6280,-19315,-6189,-4886,-2130,-1822,-2356
6290,-18050,-4525,-4984,-2234,-1050,-2070
6300,-15990,-3464,-3313,-2507,-588,-1832
6310,-14415,-2693,-2022,-2243,-805,-2166
6320,-14231,-2252,-2865,-129,-1056,-3596
6330,-16065,-3246,-3019,283,95,-3333
6340,-17265,-5149,-2254,548,1733,-2278
6350,-17467,-8168,-176,2682,2434,-909
6360,-19191,-7997,765,4736,2429,-855
6370,-19312,-6667,1758,4025,925,-963
6380,-17282,-3544,1965,2083,-1595,-468
6390,-16026,-3173,2059,1088,-1591,-2
6400,-14900,-2703,1668,831,-455,1089
6410,-12069,-2927,-600,1268,-69,1941
6420,-12039,-3869,-35,1193,330,2114
6430,-11236,-4847,886,1732,393,2585
6440,-11010,-5631,1190,2813,330,2802
6450,-9782,-6138,1769,3857,-430,2363
6460,-8660,-6063,2644,4734,-1379,1516
6470,-10357,-5221,1746,6359,-2555,330
6480,-12636,-4218,-950,6980,-3501,371
6490,-13836,-7489,-3255,1248,-4103,2631
6500,-14442,-9155,-1624,-1252,-2787,3215
6510,-14613,-8630,-722,-1401,-2130,3748
6520,-11728,-5140,1311,-303,-4950,3917
6530,-9574,-3865,1511,533,-6797,3296
6540,-9054,-2140,1367,1469,-7045,2367
6550,-7993,551,1055,1491,-4388,1575
6560,-7792,1044,1800,709,-3409,764
6570,-7268,547,3426,241,-2488,-235
6580,-8736,-2380,4058,99,-1307,-2240
6590,-8617,-3742,4787,-581,-1658,-2568
6600,-9155,-4922,5370,-847,-1963,-3318
6610,-10782,-8110,6461,-113,-2707,-5491
6620,-14228,-9794,7117,741,-2773,-6729
6630,-16098,-11095,7533,2105,-3553,-6478
6640,-19284,-12844,7401,4732,-4321,-4435
6650,-20242,-12071,4664,5266,-2943,-3595
6660,-21099,-10889,297,3946,-1937,-3352
6670,-23027,-11230,79,712,-1493,-3174
6680,-24994,-12944,7547,-440,700,-569
6690,-23466,-14316,12893,1309,34,83
6700,-20704,-14374,15263,3404,-1010,411
6710,-18727,-14042,12914,4573,-1648,459
6720,-19167,-13873,11310,5610,-4710,404
6730,-22067,-12932,9038,7615,-6269,514
6740,-24405,-10691,5333,9361,-7941,1513
6750,-21148,-3365,-5044,6518,-9657,4039
6760,-21559,-1737,-5040,2184,-6917,4512
6770,-21407,-335,-4739,-835,-3961,4822
6780,-13973,1063,-1600,-3166,828,3072
6790,-10850,-69,521,-1583,1166,302
6800,-11012,-776,393,980,597,-1675
6810,-11767,-2372,-625,1954,-247,-1582
6820,-15632,-7388,1163,768,515,-738
6830,-16732,-8084,261,798,343,-1086
6840,-15406,-7605,-4268,-2497,3271,-1858
6850,-16389,-8419,-3745,-4993,6055,-2606
6860,-16727,-9063,-1694,-5346,6870,-3115
6870,-15427,-8720,-460,-3231,5022,-3570
6880,-13164,-7938,1507,666,96,-5406
6890,-13318,-7407,2623,1853,-1452,-5779
6900,-13483,-6268,3447,3135,-2906,-5567
6910,-12923,-4064,2087,4882,-4469,-5394
6920,-12791,-3598,1599,4213,-3571,-5436
6930,-13028,-3332,999,3200,-1814,-5086
6940,-12736,-3686,2560,2158,-140,-4384
6950,-12965,-3558,2253,2086,265,-3673
6960,-11845,-3597,1093,2462,-639,-3298
6970,-11935,-4204,866,1848,-1133,-3254
6980,-11634,-5711,1146,634,-1979,-2875
6990,-11168,-6419,1463,475,-2112,-2581
7000,-11187,-6921,1943,154,-2508,-2508
7010,-11629,-7422,3004,-324,-3204,-2282
7020,-11121,-7390,3244,-771,-4526,-1062
7030,-10789,-7558,3160,-1550,-4614,-830
7040,-10705,-7829,3105,-2424,-4376,-844
7050,-10699,-7748,3290,-3236,-3918,-818
7060,-10714,-6748,2897,-2929,-3676,-595
7070,-11510,-6177,3757,-3172,-2755,554
7080,-11131,-5853,3927,-3236,-1929,1573
7090,-11295,-6077,4168,-3332,-640,2610
7100,-11090,-6943,4267,-3714,245,3563
7110,-12598,-8187,3656,-5330,1115,5110
7120,-14130,-10000,4038,-6707,1652,5961
7130,-14785,-12074,5063,-7242,1936,6306
7140,-16305,-14312,4096,-5051,2347,4562
7150,-14636,-13538,3081,-5178,2626,3902
7160,-14767,-13556,6320,-5861,3812,3008
7170,-15323,-13067,6328,-4158,3183,1870
7180,-15751,-14904,5795,-2872,-958,-186
7190,-15015,-14985,6339,-2193,-1395,-458
7200,-14931,-14452,6590,-1272,-2040,-907
7210,-16357,-13258,7276,-1693,-2605,-1238
7220,-17726,-13040,7334,-2215,-2964,-1275
7230,-19040,-12976,6480,-2510,-2984,-1493
7240,-20981,-12789,5871,-2813,-2614,-1916
7250,-21813,-10701,4928,-2181,-3906,-2749
7260,-20642,-10362,3797,-1500,-5480,-2798
7270,-13552,-4970,332,273,-4919,-2879
7280,-13398,-3890,53,1627,-5119,-2995
7290,-13391,-3471,-662,3076,-4929,-2919
7300,-16467,-4826,-1926,5430,-2401,-2585
7310,-18512,-6167,-2352,5749,-300,-2079
7320,-19594,-7344,-2010,4926,1558,-1460
7330,-19793,-7699,-691,3464,3116,-795
7340,-19614,-7282,3890,174,3695,-337
7350,-18554,-6041,5557,-542,1628,-66
7360,-16678,-4759,6172,-698,-578,351
7370,-15780,-4561,5982,-1090,-2264,650
7380,-14565,-4751,5442,-1137,-3199,1179
7390,-12776,-5256,4565,-937,-3801,1665
7400,-10892,-6389,3294,-360,-3205,1493
7410,-10449,-7215,3199,229,-2410,965
7420,-10340,-7833,2784,1126,-1875,258
7430,-10636,-8742,2518,1646,-1354,-106
7440,-10732,-8949,2610,2157,315,187
7450,-11160,-8514,2761,2369,831,426
7460,-10759,-8312,2980,2355,1392,832
7470,-10881,-6416,4176,3076,1206,1217
7480,-10380,-5288,3891,3861,392,1332
7490,-9980,-4176,3343,4056,-272,1310
7500,-7651,-3618,3443,3613,-1181,933
7510,-8072,-3263,2925,3460,-945,-91
7520,-8573,-3015,3249,2607,-274,-466
7530,-8306,-3094,4098,1745,185,-813
7540,-8576,-3316,4283,1846,-127,-1574
7550,-8572,-3643,4269,1801,-495,-2167
7560,-8928,-5120,5029,892,-1103,-2589
7570,-9643,-5604,5093,615,-1028,-2407
7580,-10139,-6351,5346,235,-1143,-2212
7590,-11113,-7320,6049,-275,-972,-2152
7600,-12797,-9655,8346,-607,-359,-2071
7610,-13434,-10429,9537,-91,-269,-2154
7620,-14435,-11299,10957,627,428,-2099
7630,-16339,-11975,9216,3912,1342,-2150
7640,-18283,-11012,3513,4918,583,-2465
7650,-19998,-10818,1164,3435,559,-2185
7660,-21631,-10492,3567,1640,1907,-1456
7670,-19263,-10787,12035,294,2703,-631
7680,-18428,-12321,15180,106,3052,-315
7690,-14430,-14481,15547,877,1896,170
7700,-14692,-17183,15310,3850,-840,-1195
7710,-16712,-16570,14847,5887,-2392,-2040
7720,-18500,-15389,12892,8147,-3319,-2340
7730,-22668,-8582,3089,9682,-4182,-1839
7740,-23370,-5392,-1744,8189,-4091,-1174
7750,-24378,-3040,-3872,5929,-3370,-601
7760,-21487,1451,-5342,1238,-1898,1661
7770,-17883,1940,-2786,-1772,-394,2376
7780,-13498,1113,1045,-2947,1157,2022
7790,-12101,-1214,2283,-585,1113,351
7800,-13021,-3531,2610,-627,1525,742
7810,-13798,-5971,2401,-297,1855,870
7820,-13887,-9520,551,1419,1007,-3
7830,-13630,-10127,-2114,1232,1328,-724
7840,-14501,-10595,-4444,-917,2910,-1234
7850,-15020,-11584,-4202,-4169,4796,-999
7860,-14051,-9714,994,-4967,4601,-1086
7870,-13836,-7572,2426,-2701,3134,-1812
7880,-13710,-6446,3086,-911,2143,-2185
7890,-13865,-5143,4221,6,2014,-1964
7900,-13520,-4708,4631,-190,1821,-1769
7910,-13215,-4320,4340,-316,1907,-1580
7920,-13206,-4401,3090,-460,2418,-1323
7930,-12533,-5211,1938,-2222,1827,-1180
7940,-11978,-5448,2182,-3062,1192,-1135
7950,-11333,-5432,2488,-3539,533,-1111
7960,-11193,-5380,1155,-3696,-225,-886
7970,-11532,-5936,519,-4290,-164,-669
7980,-12437,-7483,1109,-5215,447,-361
7990,-12399,-7986,1430,-4934,486,-14
8000,-12790,-8137,2063,-4199,176,358
8010,-12866,-7413,741,-4026,-484,1365
8020,-14029,-6976,411,-4811,-71,2274
8030,-13446,-7215,1167,-5781,462,3727
8040,-13767,-7534,1575,-6398,1143,4764
8050,-14547,-7707,2463,-6599,3575,7445
8060,-15447,-7508,2606,-6330,5364,9210
8070,-16336,-8792,3963,-6091,7163,11206
8080,-13949,-8112,2759,-5403,9423,15895
8090,-8782,-8328,3838,-6405,9253,15864
8100,-7770,-8144,5578,-6529,7933,12729
8110,-7905,-8065,5185,-5441,3849,9710
8120,-8228,-13037,5703,-2134,-2998,7492
8130,-15417,-8259,-17,159,-2665,6727
8140,-16901,-8165,-487,-735,-3345,7613
8150,-18162,-6617,-581,581,-3528,6677
8160,-17400,-7379,1115,-476,-2729,5804
8170,-16963,-8241,3483,-1661,-2182,3487
8180,-18253,-9099,4493,-1504,-1875,689
8190,-19701,-8373,4397,-2645,-2892,-2215
8200,-21715,-8935,3836,-3390,-3007,-2653
8210,-23846,-9333,3686,-4030,-3350,-3108
8220,-22654,-9334,2926,-3038,-5936,-3977
8230,-22337,-8133,1038,-2098,-5551,-4600
8240,-20392,-7726,-1820,-1214,-5278,-4081
8250,-18352,-5523,-4104,-1274,-3876,-1392
8260,-17328,-4886,-3708,-1847,-2511,116
8270,-13448,-5310,-2763,-2057,-983,1439
8280,-14683,-2385,-777,-767,-177,19
8290,-15313,-1171,-1834,715,-1737,231
8300,-17200,-17,-4502,1820,-3178,-63
8310,-17582,-1001,-4938,1670,-3022,-196
8320,-17197,-4549,49,2284,182,-1871
8330,-16640,-5137,967,4075,889,-3252
8340,-18532,-4769,2330,4713,816,-4139
8350,-17376,-4623,6770,3131,-744,-1923
8360,-17543,-4397,6836,3242,-2647,-2114
8370,-14547,-3632,6254,3379,-4382,-2530
8380,-14593,-2544,4026,3887,-3960,-2940
8390,-12089,-2992,2459,5283,-2807,-2334
8400,-12288,-4049,1414,6620,-349,-4621
8410,-13293,-5674,594,7766,-168,-4761
8420,-15656,-8375,2231,8877,-3073,-1980
8430,-15602,-8273,3711,9908,-4887,-305
8440,-14425,-7946,4037,10909,-6359,406
8450,-12000,-5165,2543,11057,-6688,-384
8460,-11383,-3196,1170,9679,-6875,-1363
8470,-10643,-3077,1274,7726,-6771,-1174
8480,-11102,-3206,2627,6254,-6460,-746
8490,-9671,-2256,2980,6817,-6689,-920
8500,-9344,-2243,3292,6972,-6981,-1955
8510,-9320,-2179,3488,7347,-6663,-2538
8520,-7401,-1181,4225,7780,-3905,-2825
8530,-8051,-710,3936,7508,-2612,-4050
8540,-7936,-584,3595,6846,-1450,-4615
8550,-6500,-768,3821,5649,-728,-4770
8560,-7535,-1582,7056,2471,1371,-4826
8570,-7931,-2368,8948,1854,1166,-5153
8580,-8765,-2914,9226,2233,1409,-5494
8590,-12634,-4879,8678,1226,3349,-5698
8600,-15469,-6855,9794,360,4143,-5556
8610,-18308,-8632,10024,998,4130,-5348
8620,-22288,-10052,4406,3381,1927,-4334
8630,-24562,-10363,3201,2179,1213,-3536
8640,-25883,-10819,7287,759,992,-1909
8650,-21643,-12076,15529,3447,-1471,-222
8660,-18468,-14697,18202,4525,-1754,-222
8670,-16397,-16728,19173,4846,-2323,-97
8680,-14640,-14606,15890,5741,-6192,1317
8690,-14576,-11528,13920,6094,-6000,1828
8700,-14519,-7933,10922,6579,-4192,1599
8710,-16991,-5956,7619,6447,-2298,666
8720,-19651,-4788,1798,4958,165,-571
8730,-20146,-3967,825,4228,927,-1138
8740,-18734,-2152,-581,3704,1377,-1518
8750,-16651,-1291,-2410,787,1139,-1897
8760,-16485,-1256,-2730,-250,913,-1287
8770,-15985,-2549,-650,-802,-10,-619
8780,-16188,-3852,-255,-278,-639,-157
8790,-16272,-7815,1702,1154,530,-144
8800,-15934,-8919,1695,1941,1403,-852
8810,-15809,-8928,-805,1724,1597,-1829
8820,-13708,-9069,-2175,-3371,2855,-2657
8830,-14419,-7552,-2145,-4103,3738,-3061
8840,-14834,-6032,-2045,-3618,4177,-3204
8850,-15030,-5396,-148,-3478,4027,-3413
8860,-15114,-5146,3342,-2809,4407,-3723
8870,-15168,-4873,5299,-2443,3934,-3659
8880,-13902,-3990,5960,-806,1897,-3200
8890,-13324,-3296,4373,-704,1339,-3129
8900,-12049,-3263,3054,-2004,1033,-2984
8910,-11772,-3716,3030,-3706,1092,-2729
8920,-11003,-3841,960,-5077,1458,-1515
8930,-10640,-4244,417,-5754,2029,-1167
8940,-11229,-4951,1170,-6136,2598,-1137
8950,-11824,-6576,1708,-4812,1448,-1473
8960,-11347,-7438,2259,-4079,443,-1365
8970,-11343,-8219,2533,-3429,-599,-1398
8980,-11307,-8833,3619,-2981,-1211,-1389
8990,-11023,-8694,3796,-1933,-1954,-718
9000,-10913,-8126,3126,-1575,-1631,-119
9010,-10957,-7862,2661,-1814,-1111,304
9020,-11896,-7939,3259,-2981,-722,751
9030,-12063,-7516,3271,-2906,-1155,1000
9040,-12098,-7087,3431,-2814,-1434,1341
9050,-12088,-6761,3751,-2684,-1100,1841
9060,-11995,-6698,4236,-2582,-956,2167
9070,-11742,-6970,5127,-2574,-906,2577
9080,-12023,-7601,5839,-2617,-631,2966
9090,-15229,-11244,6188,-2586,-517,3593
9100,-15590,-11066,5315,-2126,-460,3128
9110,-15681,-12494,4461,-2106,-344,2196
9120,-16041,-13754,4141,-2212,-422,1316
9130,-16300,-14672,4217,-2203,-863,466
9140,-16182,-14719,4936,-2121,-1479,-1
9150,-15720,-13517,7921,-1758,-2150,150
9160,-16057,-12731,8725,-1342,-2712,95
9170,-17304,-12274,8180,-1035,-3083,-258
9180,-22293,-12810,6540,-1369,-3245,-1932
9190,-21820,-12290,5468,-924,-4911,-2325
9200,-20231,-12142,3812,-337,-6285,-3127
9210,-18395,-12300,2033,292,-6392,-3902
9220,-16735,-11030,538,1604,-3085,-4532
9230,-16094,-9206,2196,2267,-1984,-4113
9240,-15551,-7155,3144,3557,-2402,-3461
9250,-14988,-4895,2426,5554,-3139,-2370
9260,-16359,-4792,892,5720,-2643,-2153
9270,-17773,-5127,-98,5282,-1928,-1729
9280,-18246,-5836,-372,4567,-583,-942
9290,-19856,-6343,-125,4962,3719,212
9300,-20358,-4743,516,5537,4336,51
9310,-17683,-3765,5897,5354,-902,-1603
9320,-17053,-3474,6257,5844,-2946,-1942
9330,-15575,-3433,6175,5446,-3930,-1164
9340,-13636,-3833,5918,4179,-4057,-228
9350,-13031,-4957,5136,1691,-1162,1198
9360,-12789,-5630,4624,1383,-272,1637
9370,-12553,-5951,3720,1687,524,2009
9380,-12480,-6117,2734,2300,875,2238
9390,-12832,-6363,3243,2672,250,2069
9400,-12496,-6399,3382,3581,-1005,1942
9410,-12162,-6115,3199,4740,-2170,1703
9420,-11315,-5492,3053,6223,-3732,801
9430,-10922,-4633,3107,6862,-4075,393
9440,-9944,-4026,2807,7459,-4334,-56
9450,-9704,-3353,3152,7905,-4075,-1186
9460,-9592,-3138,3447,7840,-3822,-1461
9470,-9406,-2920,3595,7545,-3445,-1751
9480,-9605,-2632,4038,7057,-3039,-2046
9490,-9074,-1479,4335,6128,-2828,-2040
9500,-8411,-1558,4311,5537,-2613,-2241
9510,-8704,-1219,4256,4530,-1980,-2623
9520,-8186,-1350,4448,1612,-135,-2432
9530,-7999,-1630,4415,-51,685,-2326
9540,-8499,-2115,4942,-1872,1584,-2185
9550,-9910,-3199,6613,-4959,2311,-1515
9560,-10413,-3909,7660,-6026,2287,-1069
9570,-13120,-5679,10065,-6931,3207,-850
9580,-14886,-6934,11881,-6394,3215,-883
9590,-16627,-8538,13795,-4932,2262,-1060
9600,-19124,-11308,12422,-233,223,-1032
9610,-21695,-12096,9057,883,769,-835
9620,-23102,-12633,7540,955,1667,-355
9630,-22229,-11308,8610,1040,2163,162
9640,-16652,-11302,13144,1838,960,1181
9650,-15429,-12803,13941,1537,-154,1155
9660,-14311,-14943,15190,1229,-986,1438
9670,-15395,-16323,18350,4017,-3706,1346
9680,-17538,-15000,17671,6483,-4561,812
9690,-19350,-11618,13733,8196,-4067,511
9700,-18609,-4194,2999,7021,-2619,180
9710,-19342,-1877,17,5947,-1226,-34
9720,-19164,-1003,-456,4966,-511,-265
9730,-17509,-589,-300,4184,-863,-968
9740,-14953,-985,-673,2329,22,-2282
9750,-14505,-2093,-293,1059,1027,-2041
9760,-14990,-3513,1140,-1,1385,-1591
9770,-15525,-6399,2446,580,1202,-329
9780,-16948,-6883,1996,1010,2399,-96
9790,-15826,-6841,28,-869,4678,-270
9800,-14654,-7118,-1553,-2605,5375,-1215
9810,-14373,-7036,-2246,-4068,5434,-2095
9820,-13895,-6628,-1822,-4387,4590,-2356
9830,-14226,-5468,117,-3152,3732,-2756
9840,-14149,-6000,2040,-2844,4354,-2803
9850,-14321,-6354,4037,-2457,4784,-2923
9860,-14744,-5308,6416,-1136,3293,-2565
9870,-13775,-4833,5190,-567,2095,-2253
9880,-13038,-4640,3825,-1121,868,-2536
9890,-12302,-4112,1900,-2116,627,-1844
9900,-11702,-4009,1382,-3677,974,-1496
9910,-11321,-3924,752,-4023,878,-1281
9920,-11203,-4196,566,-4334,958,-1237
9930,-10816,-6243,755,-5213,666,-1378
9940,-12480,-6834,2201,-5895,1347,-1391
9950,-12245,-7378,3741,-5785,821,-1048
9960,-11905,-7105,3391,-4099,-1197,-1063
9970,-11326,-7201,3236,-4044,-941,-651
9980,-11351,-7145,2939,-4156,-486,-381
9990,-11694,-7050,2365,-4420,-251,-87
10000,-12328,-6279,2920,-3182,-711,1728
10010,-12540,-6179,3552,-2674,-1034,1898
10020,-13102,-6819,5235,-1876,-1438,2341
10030,-13003,-6853,6021,-1740,-1789,2533
10040,-11923,-7608,7244,-2108,-1566,3146
10050,-13724,-10395,7821,-3154,-424,4371
10060,-14997,-11743,6292,-3240,-122,4721
10070,-15404,-12708,5091,-3282,-55,4573
10080,-15644,-12660,3995,-2782,508,4054
10090,-15744,-12992,3786,-1695,3153,3015
10100,-16502,-13452,3788,-1516,3903,2332
10110,-16679,-13705,3988,-1438,3883,1847
10120,-17182,-11285,6728,-1324,2010,1463
10130,-17733,-11140,6465,-1176,1768,1732
10140,-18281,-10689,9275,-2164,1205,1599
10150,-19783,-9158,9409,-2295,14,648
10160,-22749,-9223,7724,-2874,-3178,-474
10170,-23872,-8914,5950,-2958,-4641,-1319
10180,-22059,-8188,3854,-2678,-5737,-1833
10190,-16957,-8824,-1202,-1948,-5508,-2421
10200,-15742,-8800,-2228,-1973,-4313,-2630
10210,-16301,-7802,-1379,-1807,-2892,-2626
10220,-14262,-5142,-210,107,-3080,-1005
10230,-13875,-3865,-882,1213,-3562,-955
10240,-13873,-3933,-2026,1565,-3026,-1147
10250,-17981,-6611,-1738,1733,-93,-1098
10260,-19770,-7106,-1777,2722,2037,-1050
10270,-18580,-7898,-2531,3137,2793,-1581
10280,-19158,-6571,2780,3737,66,-2479
10290,-17405,-4034,1183,4309,-1700,-2532
10300,-18275,-1941,585,1595,-3355,-2907
10310,-16543,-2889,8694,-4326,-2437,682
10320,-16738,-3213,8194,-2214,-1228,1276
10330,-15319,-3652,5474,191,-1337,1359
10340,-12927,-3892,3239,1410,-1376,1522
10350,-11327,-4795,1799,2135,-1818,1369
10360,-11906,-5002,1394,2169,-1179,1547
10370,-11542,-5155,1105,2192,-486,1789
10380,-11155,-5475,1083,2234,-155,1956
10390,-11969,-6182,2194,2795,-197,2116
10400,-10974,-6344,2457,3701,-1187,2308
10410,-11227,-6516,3194,4493,-1758,2156
10420,-10170,-5591,3357,5354,-1160,1664
10430,-10343,-4659,3080,5207,-822,1032
10440,-9703,-3565,3005,4300,-1064,310
10450,-9294,-2985,2804,4159,-1441,-127
10460,-9402,-2345,2888,3784,-1305,-419
10470,-8239,-1700,3133,3242,-824,-452
10480,-8656,-1609,3629,2161,929,-1132
10490,-8078,-1621,3855,1885,1357,-1301
10500,-7747,-1522,3817,1754,1425,-1423
10510,-8150,-2299,4253,961,1763,-1327
10520,-8740,-3096,4760,212,2181,-1304
10530,-9971,-4060,5397,-615,2983,-1560
10540,-12744,-5592,8044,-1717,3150,-1800
10550,-13996,-6333,8925,-1518,3042,-1874
10560,-15831,-7384,9564,-1004,3296,-1967
10570,-17952,-8709,9589,-108,3352,-2042
10580,-22703,-10088,4163,1905,1430,-2140
10590,-25283,-10339,461,1183,1193,-1258
10600,-26852,-9522,1067,-350,2346,84
10610,-23565,-9621,10693,-1247,3064,1953
10620,-21887,-12023,15600,-760,3264,1712
10630,-19678,-14076,18502,676,1806,1181
10640,-17895,-14044,15953,2524,-5789,22
10650,-18269,-14489,13226,5713,-6968,82
10660,-22292,-14057,11245,7505,-5873,80
10670,-20908,-6294,6,9533,-6992,1514
10680,-19714,-2834,-4967,7200,-6476,1556
10690,-20325,-849,-6426,4054,-3816,2186
10700,-17042,3395,-6206,-388,-2031,3877
10710,-14336,4031,-3425,-2637,-1625,3209
10720,-12706,4113,-1211,-3471,-297,2283
10730,-13388,2332,25,-3166,766,1602
10740,-15509,-3997,2054,-2205,900,2252
10750,-15402,-6099,1376,-1876,460,2236
10760,-16412,-8708,950,-2216,457,1435
10770,-15228,-7832,-4289,-4733,1791,437
10780,-14596,-6516,-4342,-8033,4781,336
10790,-13659,-6224,-2584,-10048,7831,124
10800,-12560,-7444,-1023,-9632,8673,-680
10810,-14402,-10008,-262,-5599,7484,-2270
10820,-16809,-10568,144,-3807,5824,-2501
10830,-17772,-10230,316,-2050,3298,-2334
10840,-18053,-7122,1100,685,668,-2833
10850,-16437,-4998,1704,1397,-857,-3615
10860,-13393,-3446,1749,1808,-2421,-4020
10870,-9534,-2398,1216,1798,-1715,-4029
10880,-9882,-2166,757,755,-1327,-3975
10890,-11326,-1212,-1233,-2607,-612,-1409
10900,-10425,-2846,-1460,-3145,883,-1051
10910,-12542,-4898,537,-3984,1739,-502
10920,-11821,-5762,560,-3434,1581,494
10930,-12510,-6142,1044,-3059,1819,510
10940,-12168,-6544,1330,-3030,1481,663
10950,-12242,-7266,1328,-3591,1153,1047
10960,-13071,-7432,1652,-3916,1213,1402
10970,-13317,-7433,1708,-3783,712,1753
10980,-13241,-6124,1115,-2503,-222,2361
10990,-12858,-5583,932,-2019,-327,2316
11000,-12721,-5034,1173,-1906,-325,2132
11010,-12722,-4591,1614,-1991,-645,2180
11020,-12655,-4833,2744,-2591,-2064,2918
11030,-13418,-5665,2716,-2897,-2190,3199
11040,-14138,-6761,3020,-3438,-1614,3506
11050,-14953,-10059,3164,-3719,1508,3252
11060,-15453,-11596,2260,-2026,2726,2150
11070,-16300,-12679,992,-894,3762,1210
11080,-17692,-12507,545,-424,3887,1080
11090,-17288,-11999,1910,-1519,1330,1419
11100,-17445,-12537,3276,-2043,611,866
11110,-18883,-12137,3757,-275,185,-465
11120,-19556,-10393,5142,212,-131,-836
11130,-19875,-9162,5858,300,-434,-865
11140,-20011,-10040,5429,-1395,-498,-682
11150,-20100,-10694,4028,-2269,-170,-990
11160,-20689,-10889,3117,-2562,518,-1556
11170,-21332,-10504,2357,-2056,967,-2126
11180,-18755,-10207,191,-266,-1406,-3142
11190,-17189,-9519,-332,490,-3313,-3777
11200,-16093,-8522,-945,1515,-4650,-4240
11210,-15277,-6211,-524,3466,-5447,-3775
11220,-15572,-3328,-1102,4519,-6674,-2670
11230,-16223,-2724,-1780,4513,-6485,-1988
11240,-18017,-2391,-2746,4367,-5432,-1430
11250,-21721,-2237,-3853,3941,-3871,-569
11260,-23137,-1943,-3530,2315,292,1641
11270,-23647,-1344,-2376,1556,1908,2131
11280,-22436,-1180,-347,677,1633,1862
11290,-19163,-1787,3744,-352,-1424,-271
11300,-16583,-1691,3893,13,-2451,-441
11310,-16278,-1349,3686,143,-2429,-317
11320,-14232,-1420,2686,-1206,-1647,1126
11330,-13165,-1843,2244,-1738,-1073,1516
11340,-12333,-3083,1163,-646,-441,1066
11350,-12575,-4023,785,-230,173,714
11360,-13368,-5044,598,-42,319,560
11370,-14029,-6030,724,267,-2,1045
11380,-13783,-7071,1372,1299,-1828,2242
11390,-13753,-7045,1824,2026,-2497,2433
11400,-13013,-6217,1524,3009,-3504,2427
11410,-10515,-3559,70,3462,-4095,2671
11420,-10153,-2777,478,2875,-3308,2743
11430,-10524,-1497,2268,2654,-3251,2760
11440,-7980,-1466,1382,3511,-5013,2759
11450,-10451,-1046,1088,3167,-4427,1454
11460,-10163,-1408,2195,2389,-3090,1619
11470,-9607,-1236,2990,2141,-2497,1166
11480,-8037,-494,3513,2103,-1161,-197
11490,-8065,-1049,4282,1582,-229,-847
11500,-8719,-1726,4120,970,396,-1062
11510,-8732,-2576,4040,277,976,-941
11520,-9998,-3479,4523,-1168,1610,-1297
11530,-10744,-4046,4830,-1317,1908,-1604
11540,-11886,-4777,5208,-817,2214,-1990
11550,-14626,-6427,6509,1208,1389,-2869
11560,-16118,-7355,7508,2195,485,-3306
11570,-20869,-9192,7556,3999,-944,-3173
11580,-23701,-10036,5264,3982,-838,-2202
11590,-26519,-10511,4426,2187,434,-761
11600,-27198,-9477,8233,305,1531,752
11610,-25488,-9705,10944,1341,649,3439
11620,-22496,-9602,12687,3302,-521,3370
11630,-18749,-9827,12702,5257,-2083,2271
11640,-14435,-13081,12704,6589,-6022,2
11650,-14719,-14292,12097,7483,-6973,-225
11660,-17202,-13629,10439,8450,-6379,-704
11670,-22192,-11661,7577,9153,-4795,-1397
11680,-22235,-1471,-3489,6349,-3673,-194
11690,-23447,1040,-4499,2897,-2012,827
11700,-22195,2939,-4726,1154,-863,2169
11710,-14539,6017,-1707,588,165,2284
11720,-11623,5287,774,1432,-231,606
11730,-11221,4031,839,2768,-332,-752
11740,-17281,-39,2976,1347,2749,1348
11750,-18776,-3124,3075,1252,3017,2623
11760,-18671,-5591,1897,1961,1934,2196
11770,-16253,-6862,-898,1914,1325,559
11780,-13987,-6780,-5666,-3826,7635,-3028
11790,-15175,-6582,-585,-555,6129,-3824
11800,-15258,-5556,-624,5121,1027,-4891
11810,-15916,-5071,-546,6048,-104,-5250
11820,-16471,-4677,1166,5675,-774,-5222
11830,-14406,-2216,2889,4990,-1996,-4136
11840,-13609,-1339,2568,4349,-1715,-4042
11850,-12636,-1215,2246,3185,-1260,-4111
11860,-12249,-1339,1637,2104,-488,-4320
11870,-12205,-1638,633,466,738,-3714
11880,-11938,-1923,-11,-310,1124,-3113
11890,-11443,-2703,28,-1138,847,-2889
11900,-13335,-4028,173,-1518,235,-3062
11910,-12853,-4638,170,-1826,-1178,-2554
11920,-13217,-5026,550,-1632,-898,-1769
11930,-13516,-5066,1113,-1300,-569,-1346
11940,-12647,-5216,1614,-674,-1583,-978
11950,-12282,-5450,1993,-743,-1788,-949
11960,-12002,-5753,2513,-965,-1854,-798
11970,-12026,-5898,3188,-1122,-2013,-523
11980,-12065,-5722,3113,-920,-2843,333
11990,-12281,-5515,2966,-885,-3129,827
12000,-12776,-5037,2724,-1027,-3197,1317
12010,-13473,-4083,2857,-1558,-3207,2535
12020,-13272,-3920,3320,-1906,-3332,3004
12030,-14109,-4909,4074,-2995,-3064,3645
12040,-15186,-6069,4527,-3743,-2558,4015
12050,-15986,-7618,4809,-4534,-1999,4410
12060,-16462,-8901,5150,-5027,-1245,4375
12070,-17387,-9221,4249,-4051,253,2961
12080,-17370,-8820,3923,-3688,591,2428
12090,-17652,-9177,3982,-3866,802,1873
12100,-17749,-11151,5922,-4320,141,395
12110,-17960,-11862,6026,-3528,203,-356
12120,-18654,-12048,6382,-2994,-390,-707
12130,-18882,-11434,7180,-3048,-1891,-608
12140,-19201,-10897,6804,-3747,-4815,-511
12150,-20058,-10884,5477,-4330,-5453,-792
12160,-20856,-10245,4737,-4828,-5306,-1129
12170,-21497,-8033,3546,-3918,-4217,-1482
12180,-20080,-7965,2322,-3260,-4578,-1725
12190,-19376,-8002,1231,-2636,-4925,-2353
12200,-18615,-7745,949,-1949,-5002,-2717
12210,-16581,-5632,1628,99,-5394,-2956
12220,-15799,-3955,1293,1172,-5393,-2649
12230,-15651,-1717,-626,1891,-2612,-1208
12240,-17352,-1380,-1736,1292,-977,-663
12250,-18777,-1346,-2474,448,423,228
12260,-21059,-2285,-2457,-811,3841,1646
12270,-21500,-3285,-1570,-967,4472,1394
12280,-21914,-3228,-266,-1046,3443,763
12290,-18412,-3883,5091,-1621,-2625,-815
12300,-16462,-3881,6489,-1638,-4168,-1011
12310,-15619,-3690,6723,-740,-4183,-646
12320,-15149,-3904,6600,-272,-3064,121
12330,-13384,-4544,5080,-116,-55,1537
12340,-12422,-4877,4282,219,1140,1675
12350,-12617,-5146,3596,688,2358,1353
12360,-12881,-5428,2956,1408,2542,1114
12370,-13069,-6380,2017,2315,1008,1166
12380,-13412,-6382,2430,2253,171,1250
12390,-12863,-6299,2917,2543,-511,1470
12400,-11943,-5022,2951,3834,-1432,1837
12410,-11176,-4226,2366,4196,-1885,1996
12420,-10805,-3658,2009,4058,-1880,2014
12430,-10370,-3154,2098,3698,-1521,2051
12440,-8121,-2078,1913,4261,-2350,1902
12450,-8906,-2054,1320,4232,-2656,782
12460,-10383,-2290,2217,3785,-1100,347
12470,-8836,-1654,2263,4504,-729,264
12480,-9406,-1324,2657,4395,-110,-425
12490,-9079,-1675,3043,3959,152,-971
12500,-9214,-1413,3357,3043,606,-1620
12510,-9494,-1518,3948,2174,697,-1738
12520,-9613,-1708,4364,1305,627,-1791
12530,-9928,-2143,4657,611,650,-2057
12540,-11205,-3688,5219,86,915,-2837
12550,-12494,-4537,5838,294,1221,-2925
12560,-14504,-5236,7002,675,1113,-2881
12570,-18530,-6102,9946,2647,-417,-2118
12580,-19566,-6319,9487,4123,-1412,-1886
12590,-21072,-6664,6568,4443,-1064,-1819
12600,-25244,-7564,5911,-420,3520,405
12610,-25640,-8185,8467,-824,3989,1752
12620,-24005,-9276,11012,944,2777,2227
12630,-22074,-10568,12489,3266,925,1728
12640,-16862,-13231,12744,5433,-3349,474
12650,-17435,-14006,13078,5394,-3916,-323
12660,-20496,-14437,13549,5864,-4244,-947
12670,-27546,-11357,9409,9895,-6337,12
12680,-19480,3799,-3396,-435,-665,3582
12690,-14193,5718,-2432,-1207,816,2824
12700,-6862,6804,665,-489,-699,-1304
12710,-7129,5376,928,-276,-589,-2338
12720,-11694,3296,2181,-848,1597,-1465
12730,-16471,-384,3134,-425,3941,812
12740,-20389,-7944,2235,4329,886,1015
12750,-18647,-8953,-1663,4284,-470,-991
12760,-17687,-8021,-5618,242,2359,-2894
12770,-15704,-8025,-2451,-8686,11831,-2436
12780,-15199,-7369,-466,-6943,11392,-2504
12790,-14479,-6357,-154,-2803,8098,-3279
12800,-14590,-5298,29,988,4240,-4568
12810,-15515,-4667,468,4548,-1091,-5982
12820,-15768,-4113,2065,4618,-2674,-5499
12830,-15373,-3036,3142,4718,-3356,-4761
12840,-13745,-1444,2346,4231,-2203,-4022
12850,-13125,-1445,1739,2841,-475,-4082
12860,-12678,-1898,1820,1152,973,-4176
12870,-12499,-2324,2072,-44,1507,-4093
12880,-11453,-2581,1530,-1034,1218,-3227
12890,-11392,-2968,1498,-1408,923,-2782
12900,-11606,-4327,643,-1470,299,-2604
12910,-13164,-4249,701,-1582,122,-2558
12920,-12848,-4873,796,-1443,-36,-1947
12930,-13188,-5298,1534,-1122,171,-1762
12940,-12791,-5344,2122,-144,-754,-1259
12950,-12485,-5496,2165,-60,-1312,-1107
12960,-12437,-5532,2482,-441,-1731,-955
12970,-12989,-5019,3203,-972,-1963,370
12980,-13018,-4677,3275,-1296,-1713,1226
12990,-13409,-4353,3056,-1244,-1545,1689
13000,-13793,-4052,2935,-1310,-1709,1999
13010,-13442,-3839,3630,-1848,-2456,2688
13020,-13092,-4091,4146,-2194,-2625,2948
13030,-12951,-4659,4775,-2454,-2562,3133
13040,-14076,-6413,5994,-3215,-2451,3618
13050,-15172,-7838,6317,-3625,-2485,3889
13060,-16227,-9115,6653,-3956,-2380,3827
13070,-17238,-10777,5918,-3615,-1724,2917
13080,-17237,-10563,4565,-3067,-1407,2311
13090,-17006,-10591,3241,-2849,-1353,1708
13100,-17180,-11126,2884,-3068,-1287,1033
13110,-17628,-12399,5015,-2643,-402,-520
13120,-17759,-12705,5683,-1812,-529,-1111
13130,-18147,-12302,6930,-1461,-1307,-1316
13140,-18208,-10682,9553,-1851,-3884,-1023
13150,-19147,-10074,8675,-2033,-4101,-979
13160,-20325,-9456,7588,-2587,-4140,-1252
13170,-20856,-8343,5408,-2530,-4310,-2324
13180,-19728,-8079,4058,-2051,-4821,-2622
13190,-18535,-7636,2996,-1622,-5630,-2988
13200,-16465,-5950,1898,-536,-5344,-2970
13210,-15103,-5064,2512,-6,-5262,-2953
13220,-14639,-3608,2538,990,-5634,-3202
13230,-14722,-2307,1958,2206,-5890,-3181
13240,-16775,-1401,324,3268,-4030,-2662
13250,-19199,-1283,-394,3176,-1981,-2042
13260,-21062,-1466,-863,2604,-48,-1128
13270,-22364,-3209,358,487,3878,407
13280,-22126,-3367,1580,-172,4886,737
13290,-21017,-3104,3051,-831,3944,659
13300,-19240,-2376,4907,-1604,1362,180
13310,-15733,-2532,7218,-1830,-2802,-355
13320,-14710,-2733,6804,-1149,-2829,41
13330,-13700,-2791,5647,-829,-1976,813
13340,-12762,-4138,5195,-1210,1077,1653
13350,-12501,-4655,4337,-574,1999,1461
13360,-11981,-5491,3922,483,1897,959
13370,-11417,-5864,3555,1398,1253,881
13380,-11747,-6586,3646,2229,744,703
13390,-12261,-6244,3076,3391,-480,1050
13400,-11888,-5650,3012,3488,-325,1718
13410,-11491,-4711,2630,3653,38,2370
13420,-11092,-3969,2419,3656,333,2926
13430,-10673,-2669,3011,3733,-373,3023
13440,-10075,-1938,4154,4102,-1768,2638
13450,-7782,-1324,2244,4949,-3808,1791
13460,-10011,-1485,3830,3148,-331,844
13470,-10136,-1644,3871,2729,323,759
13480,-9874,-1523,3638,2407,328,532
13490,-9218,-1372,3862,1819,535,-291
13500,-8943,-1341,3948,877,813,-533
13510,-8840,-1599,4015,418,932,-653
13520,-9347,-1871,3906,-44,1170,-777
13530,-10611,-2766,5056,-765,1490,-1485
13540,-11630,-3328,5845,-585,1581,-2073
13550,-12657,-4072,6738,-139,1098,-2754
13560,-15302,-6176,9163,999,-417,-3908
13570,-17206,-7356,10537,1845,-946,-4082
13580,-26928,-10126,6251,-277,2826,-1008
13590,-25173,-9556,11539,-314,2857,1241
13600,-22163,-10110,14232,1769,1518,1478
13610,-18160,-11006,14464,3638,-482,1114
13620,-16215,-13394,15864,4151,-2635,-255
13630,-18653,-13763,16194,4713,-3524,-910
13640,-21496,-13305,14790,6249,-4665,-1054
13650,-23403,-10643,10638,8075,-5718,-469
13660,-21257,-240,-1937,7320,-5247,1208
13670,-21970,2378,-4515,3886,-3048,1372
13680,-21674,3614,-4587,1117,-631,2242
13690,-14671,6407,-4265,-676,1634,2791
13700,-11533,5159,-711,-1221,1348,1171
13710,-10536,3643,632,-156,462,-429
13720,-15021,-1106,3562,832,1540,688
13730,-18023,-4258,4033,1295,3166,2000
13740,-19263,-6684,3034,1659,3171,1890
13750,-18683,-7892,667,962,2579,677
13760,-15975,-7022,-3696,-4922,6607,-1668
13770,-15585,-6681,-3206,-6931,9497,-2086
13780,-15060,-6755,-1868,-6324,10097,-2635
13790,-15338,-5778,-161,-312,4279,-4249
13800,-14636,-4697,-211,2447,87,-4557
13810,-14169,-3480,-219,3689,-2773,-4894
13820,-13954,-2678,2692,2969,-3854,-5078
13830,-13478,-2177,3672,2874,-3397,-4784
13840,-13409,-1509,3785,2824,-2587,-4394
13850,-12654,-1109,2748,1144,-521,-3700
13860,-12228,-1584,3119,-275,77,-3534
13870,-11752,-2285,4116,-1290,-32,-3447
13880,-11528,-2614,3668,-1548,-398,-3151
13890,-10882,-4226,1197,-1967,-321,-2407
13900,-11767,-5095,1108,-2663,59,-2359
13910,-12983,-5478,1261,-3187,-78,-2158
13920,-13217,-5808,1480,-2646,60,-853
13930,-13555,-5624,1488,-2178,383,-515
13940,-13167,-5731,2079,-2163,183,-279
13950,-12721,-5834,2813,-2217,-243,-68
13960,-12334,-5478,4029,-2205,-933,710
13970,-12269,-5287,4386,-2001,-1347,1105
13980,-12625,-5187,4391,-1711,-1948,1315
13990,-13136,-4955,4114,-1555,-2517,1556
14000,-13538,-5032,3826,-2024,-2445,2242
14010,-13479,-5469,4250,-2529,-2194,2490
14020,-13066,-5924,5480,-2785,-2276,2895
14030,-13468,-6870,5497,-2843,-2850,3445
14040,-14289,-8066,5857,-3307,-2822,3604
14050,-15009,-9412,6481,-3797,-1820,3665
14060,-16398,-11283,5590,-2837,863,2484
14070,-16444,-11470,4197,-1819,1038,1696
14080,-16559,-12009,3428,-1489,1287,1014
14090,-17693,-12645,4084,-1700,1597,173
14100,-18755,-13193,6694,-1110,824,-943
14110,-18637,-12414,7862,-367,323,-1204
14120,-18339,-11249,8955,52,-554,-1346
14130,-18877,-10274,9779,145,-1877,-1446
14140,-19458,-9307,6969,-725,-3910,-1250
14150,-20422,-9502,6218,-1739,-3928,-1499
14160,-21340,-8473,5854,-2031,-3361,-2138
14170,-19732,-6796,3447,-1174,-3528,-2866
14180,-18692,-6631,2173,-919,-4187,-3258
14190,-17199,-6052,1342,-553,-4702,-3519
14200,-15166,-4037,2350,649,-5387,-3687
14210,-15103,-2078,2292,1960,-6625,-3569
14220,-14714,-725,1571,3017,-7698,-3231
14230,-17372,-1635,158,3128,-3999,-2543
14240,-19802,-2521,-786,2741,-769,-2059
14250,-21630,-3372,-1007,1981,1820,-1197
14260,-22400,-4418,640,346,4623,706
14270,-21855,-3811,2007,15,4900,1208
14280,-21041,-2318,3007,-565,3543,1205
14290,-17289,-2139,7384,-2208,-3380,70
14300,-15526,-2342,8172,-1349,-4617,211
14310,-14138,-2318,7341,-269,-3565,713
14320,-13845,-2970,5511,-306,-223,1185
14330,-13058,-3034,5072,-289,519,1481
14340,-12357,-3505,4099,262,780,1593
14350,-12997,-4711,2959,1116,1222,1288
14360,-12909,-5617,2577,1412,1212,1475
14370,-13241,-6168,2914,1398,1283,1653
14380,-13583,-5934,3541,1328,983,1924
14390,-11328,-4597,2198,2120,98,2724
14400,-11067,-3776,1814,2096,-238,2348
14410,-10203,-3095,1744,1914,-850,2217
14420,-9610,-1218,3181,2169,-1414,2514
14430,-6943,-1170,1666,3003,-3466,2507
14440,-7922,-755,899,2851,-4367,1563
14450,-9507,-1137,2636,1685,-2548,1155
14460,-9335,-1171,4013,1432,-1360,693
14470,-8444,-1615,4273,-401,27,-1015
14480,-9087,-2500,4492,-1602,308,-1193
14490,-10058,-2985,5244,-1802,532,-1436
14500,-11177,-3557,6065,-1378,620,-1780
14510,-13189,-5452,7956,-385,-631,-2870
14520,-14717,-6938,9339,1903,-1384,-3476
14530,-17155,-8551,10651,3052,-1886,-3791
14540,-19706,-9703,11257,4180,-2131,-3621
14550,-25303,-10488,5775,2776,56,-2232
14560,-27682,-10430,5712,-740,2746,-507
14570,-27960,-9040,7597,-2272,4491,1248
14580,-21204,-8563,14367,834,2221,2764
14590,-18662,-9887,15329,3222,169,1748
14600,-16537,-11938,16092,4301,-1151,999
14610,-16380,-13710,17090,4606,-2688,362
14620,-21880,-13976,16335,6975,-5263,-237
14630,-22883,-10286,11445,8663,-6345,390
14640,-21063,-4380,5104,8786,-6659,1226
14650,-20041,3610,-4885,3419,-2823,1100
14660,-20056,4321,-5029,748,-158,1513
14670,-17946,5318,-5388,168,1432,2198
14680,-13454,3258,-307,542,978,265
14690,-12244,1794,2180,1957,101,-434
14700,-15525,-2236,3660,3099,672,571
14710,-17006,-4895,4123,1177,2412,1490
14720,-17726,-6500,3315,-57,3521,1184
14730,-16722,-7074,1042,-1354,3827,285
14740,-14738,-6390,-4153,-5002,7418,-1127
14750,-15825,-6356,-3823,-6280,9769,-1749
14760,-16412,-6396,-2457,-5706,9413,-2188
14770,-15178,-5376,126,-403,3132,-3357
14780,-14179,-4439,361,2391,339,-4095
14790,-13810,-3784,708,3728,-1160,-4851
14800,-14599,-3508,1989,3565,-1520,-5290
14810,-14443,-2355,4656,2709,-954,-3816
14820,-13830,-1658,4711,2639,-656,-3330
14830,-13059,-1474,3979,2264,-661,-3321
14840,-12281,-2012,3300,23,-95,-3407
14850,-11844,-2695,3681,-996,345,-3103
14860,-12200,-2962,3560,-1547,862,-2786
14870,-12342,-4086,1811,-2158,1024,-2015
14880,-12287,-4945,1472,-2440,1111,-1915
14890,-12388,-6005,1512,-2522,866,-2366
14900,-13637,-6667,1961,-2336,408,-3003
14910,-12735,-6572,2873,-1392,-1537,-1878
14920,-12400,-6182,3055,-770,-1910,-1648
14930,-11718,-6169,3386,-464,-2086,-1045
14940,-11790,-6411,3545,-553,-2286,-717
14950,-12072,-6276,3657,-722,-2663,-325
14960,-12272,-5545,3535,-730,-2907,610
14970,-12419,-4999,3618,-645,-2755,962
14980,-12251,-4460,3828,-583,-2850,1321
14990,-11779,-4154,4267,-533,-2939,1712
15000,-11124,-4628,5175,-648,-2861,2006
15010,-11924,-5078,5176,-928,-2217,2147
15020,-12614,-6220,5770,-1622,-1631,2665
15030,-14510,-9432,6091,-2475,-1181,2720
15040,-15784,-10600,5699,-2121,-389,2001
15050,-16844,-10923,4774,-1262,155,1066
15060,-17460,-10569,3841,-519,388,481
15070,-18454,-9175,5244,-824,1544,409
15080,-19341,-9549,6787,-1200,1924,-21
15090,-19652,-9557,7962,-1070,1336,-501
15100,-18903,-8629,9524,-335,-612,-770
15110,-18512,-8105,9674,-320,-1647,-594
15120,-18419,-8311,9701,-761,-2609,-174
15130,-19217,-11047,7841,-2536,-4072,-75
15140,-19914,-11378,7656,-3360,-4029,-442
15150,-20380,-9633,7122,-2988,-4210,-1302
15160,-19633,-8809,3557,-1205,-4564,-2173
15170,-18764,-8834,2272,-1140,-4953,-2607
15180,-17244,-8397,2044,-959,-5419,-3023
15190,-15759,-7098,2339,-165,-5929,-3429
15200,-14754,-3717,1826,2982,-5480,-3744
15210,-14816,-2131,615,4194,-4449,-3187
15220,-15513,-1669,-456,4210,-2592,-2240
15230,-19752,-2809,-1030,2540,1386,-783
15240,-21460,-3185,-1211,1913,2855,-16
15250,-21044,-4018,-351,1291,4292,829
15260,-21446,-3922,2215,277,4854,727
15270,-19950,-3188,3844,-713,2694,634
15280,-17764,-3319,6354,-2014,-522,155
15290,-16332,-3050,7544,-1945,-2923,-212
15300,-13632,-2796,7524,228,-1911,1066
15310,-13171,-3283,6508,907,61,1426
15320,-12912,-3804,5332,1232,1976,1533
15330,-12955,-5097,4558,1521,3202,1503
15340,-12907,-6054,4834,2417,2282,1351
15350,-12635,-6803,4640,3853,991,1375
15360,-13162,-5902,3546,3789,1985,3014
15370,-11199,-4122,2169,4190,-254,2594
15380,-9875,-2049,1172,3607,-1616,1739
15390,-9488,-1391,2490,3673,-1222,2158
15400,-6587,-451,400,4368,-2742,2269
15410,-8710,-89,2394,2672,-2208,1129
15420,-8571,-20,3038,2525,-2032,662
15430,-8225,32,3447,2274,-1713,-56
15440,-8432,-295,3964,1663,-920,-690
15450,-8028,-768,4360,10,280,-974
15460,-8160,-1110,4286,-686,466,-1042
15470,-8795,-1857,4646,-1344,367,-1261
15480,-9687,-2655,5533,-2048,354,-2016
15490,-10764,-3510,6754,-2019,517,-2500
15500,-12287,-4290,7738,-1294,67,-2914
15510,-16176,-6718,11790,1480,-2623,-3089
15520,-18499,-7825,13288,4020,-3799,-3102
15530,-18847,-9536,13893,6209,-4218,-3088
15540,-22277,-10127,8982,7077,-1645,-2920
15550,-26056,-11091,6171,-910,3011,170
15560,-25987,-9287,7598,-1885,4913,2050
15570,-23859,-8471,10323,-334,5188,3179
15580,-17433,-10462,14168,4540,-871,1241
15590,-15286,-11821,15015,5776,-3475,75
15600,-15149,-13081,16935,5831,-4704,-410
15610,-21202,-14475,16835,7909,-5654,-869
15620,-23464,-11882,10939,9327,-6101,-805
15630,-22824,-5672,2166,8084,-5253,-251
15640,-22302,-232,-3298,3728,-1796,834
15650,-19834,4166,-5290,-1910,3661,2461
15660,-16241,5115,-4838,-1287,3819,1763
15670,-13116,4857,-2101,285,2598,63
15680,-10507,3576,-562,4096,-997,-2118
15690,-14165,1975,1849,3223,664,-692
15700,-18243,-1293,5204,2780,2759,2094
15710,-19851,-6738,4020,6611,-69,2011
15720,-17257,-7742,413,5677,-1292,-371
15730,-14958,-7149,-3605,1441,1469,-2202
15740,-13633,-7292,-4100,-4182,7445,-2665
15750,-15747,-7160,-1129,-6477,13036,-2566
15760,-16170,-6998,56,-3465,9575,-2991
15770,-16039,-6598,455,389,4413,-4032
15780,-16376,-5810,58,3719,288,-5105
15790,-17141,-4976,1985,5503,-3010,-5908
15800,-16299,-4160,3899,5261,-2909,-5269
15810,-13390,-1296,4653,4695,-911,-4303
15820,-12361,-1005,3912,3614,-277,-4188
15830,-11400,-1050,3378,2131,186,-4031
15840,-11418,-1875,3288,-339,927,-3722
15850,-11494,-2196,2934,-965,755,-3149
15860,-11678,-2670,2093,-1276,319,-2684
15870,-11962,-4283,1057,-1579,-136,-2632
15880,-13261,-4686,1376,-2223,-299,-3025
15890,-13390,-4857,1953,-2158,-808,-2732
15900,-12426,-5275,2257,-1603,-1147,-2163
15910,-11790,-5201,2873,-66,-1253,-2090
15920,-11418,-5378,2943,250,-1602,-1815
15930,-11474,-5497,3263,116,-2227,-1604
15940,-11418,-5200,4289,-633,-2880,-342
15950,-11564,-4968,4495,-756,-2499,221
15960,-12070,-4554,4620,-925,-2094,637
15970,-12384,-4240,4758,-1175,-1896,1126
15980,-11915,-4085,5035,-1349,-2039,1875
15990,-11818,-4305,5344,-1448,-1761,2071
16000,-12151,-4465,5507,-1738,-1308,2332
16010,-12946,-5397,6002,-2402,-1158,2979
16020,-14344,-6046,6094,-2782,-1609,3265
16030,-15215,-7307,5887,-2794,-2487,3572
16040,-16398,-9231,4116,-2320,-3175,3245
16050,-16662,-9136,3844,-2286,-1798,2799
16060,-16891,-8602,3719,-2310,428,2534
16070,-17607,-8117,5609,-3173,2657,2062
16080,-17655,-8700,7519,-3780,3048,1877
16090,-17894,-9371,9132,-3824,2746,1301
16100,-18162,-10148,11834,-3511,1591,774
16110,-18318,-10189,12527,-2724,-933,623
16120,-18326,-10910,12090,-2704,-2868,601
16130,-18694,-11797,10733,-3260,-4740,519
16140,-19239,-13352,7983,-5172,-6788,-175
16150,-20442,-11805,6575,-4875,-6577,-866
16160,-21199,-10197,4942,-3748,-6517,-1413
16170,-20939,-9765,1883,-2586,-6820,-2080
16180,-18642,-9253,593,-596,-6306,-3869
16190,-17327,-8301,522,-165,-4704,-4305
16200,-16469,-7076,1715,178,-3422,-4359
16210,-16834,-3083,2225,3172,-2068,-3850
16220,-17067,-1160,1159,4409,-1435,-2542
16230,-18893,-326,47,4685,-740,-1305
16240,-21147,-495,-458,3843,444,-313
16250,-19142,-3587,5159,-331,2367,-821
16260,-16423,-3974,6979,-506,-2180,-1885
16270,-14977,-3538,6888,498,-3806,-2085
16280,-14129,-3020,6293,692,-396,21
16290,-13751,-3889,6361,392,1062,724
16300,-13812,-4428,6006,966,1546,614
16310,-12633,-4824,4163,2989,878,-74
16320,-13149,-5121,4074,3297,825,-402
16330,-13426,-5396,4276,3744,405,21
16340,-12600,-5892,4307,4481,-351,766
16350,-12713,-5350,3978,5038,-317,824
16360,-12923,-4778,4072,4708,576,1334
16370,-11711,-4470,3688,4341,1416,2198
16380,-11098,-2959,3227,3695,2726,2213
16390,-9747,-2078,2456,3581,1663,1683
16400,-10283,-1030,2532,3794,232,884
16410,-7819,-1049,1364,4483,-1285,960
16420,-8472,-1072,1081,3737,-134,-45
16430,-8186,-1280,1638,3145,848,-165
16440,-8912,-1517,2600,2699,1245,-765
16450,-7311,-1798,3381,2367,199,-1330
16460,-7811,-1575,3482,2465,469,-1584
16470,-8028,-1576,3918,2453,377,-1807
16480,-9115,-2026,4736,2252,-146,-2551
16490,-10016,-2426,5395,2127,-123,-2903
16500,-10792,-3249,6503,2007,-238,-3096
16510,-13959,-4824,9102,2837,42,-3368
16520,-16257,-5580,10307,3844,-94,-3325
16530,-17357,-7211,12369,5067,-723,-3267
16540,-21542,-10099,9120,7610,1033,-3493
16550,-24032,-11361,5931,6180,1509,-2824
16560,-25766,-10739,6299,3124,1914,-1352
16570,-26173,-8010,8754,1721,3071,308
16580,-21210,-6915,13287,3843,2204,1605
16590,-18896,-7801,14876,5025,268,820
16600,-15831,-8738,15734,5793,-2342,428
16610,-14131,-9916,15920,6175,-5328,-738
16620,-16106,-10523,15171,7072,-5312,-1140
16630,-19052,-10232,12207,8451,-5402,-1566
16640,-21416,-7788,6133,9063,-5084,-1677
16650,-23932,-1066,-3098,4414,118,-126
16660,-24439,1084,-4992,2322,2557,1043
16670,-22278,2792,-5531,1098,3284,2247
16680,-13840,2444,-703,1362,915,1077
16690,-13029,1828,-118,2979,-381,-587
16700,-16937,-1136,2167,2442,1174,1594
16710,-18579,-3596,2448,2607,2743,2984
16720,-18073,-5840,1621,3193,2308,2403
16730,-15477,-7437,-2542,1262,3093,-1582
16740,-14490,-6910,-3855,-1666,4960,-2726
16750,-14946,-6356,-3220,-4308,7076,-2898
16760,-15507,-5880,-1901,-5111,7914,-2644
16770,-16573,-4871,918,-2051,3679,-3548
16780,-15929,-4749,1064,286,803,-4338
16790,-15843,-4533,1392,1639,-871,-5072
16800,-15265,-3126,3639,2154,-841,-4170
16810,-14589,-1894,4266,2407,-330,-3318
16820,-13901,-1417,3868,2534,330,-2748
16830,-13708,-902,3442,2103,915,-2608
16840,-12360,-1025,2868,-217,775,-2328
16850,-12344,-1868,2954,-2287,1341,-1663
16860,-12342,-2841,2421,-2959,1106,-1350
16870,-12656,-3932,1856,-3538,711,-1272
16880,-13084,-5562,1345,-3852,218,-1526
16890,-13261,-6333,1248,-3051,-172,-1727
16900,-12968,-7031,1614,-2582,-92,-1833
16910,-14078,-6743,2108,-2233,4,-1913
16920,-12948,-5637,3426,-2023,-544,-486
16930,-12737,-5308,3843,-1921,-843,-307
16940,-13179,-4992,3680,-1779,-1987,-38
16950,-13309,-4678,3825,-1878,-2484,335
16960,-13303,-4353,3829,-1961,-2822,717
16970,-13446,-4132,4272,-2375,-3373,1188
16980,-13366,-3984,4418,-2604,-3553,1497
16990,-12956,-4089,4695,-2757,-3370,1931
17000,-12594,-4516,4946,-2830,-3152,2437
17010,-12721,-5048,4945,-3255,-3333,2677
17020,-12847,-6049,4993,-3825,-3526,3029
17030,-13220,-6890,5218,-4295,-3448,3229
17040,-14466,-8666,5432,-4087,-2235,2707
17050,-15363,-9185,5308,-3649,-1750,2159
17060,-16111,-9043,5159,-3204,-1310,1908
17070,-16487,-8475,5814,-3212,-967,2043
17080,-17360,-9148,6016,-3367,-707,1603
17090,-17922,-9586,6280,-3555,-1086,1024
17100,-16699,-9272,6724,-2982,-2351,284
17110,-16503,-8843,7210,-2515,-2458,27
17120,-16732,-8641,7966,-2322,-2785,-52
17130,-17089,-8715,8522,-2493,-3088,66
17140,-17625,-10218,7018,-3564,-4102,96
17150,-20712,-9296,4140,-2996,-3518,-2439
17160,-20232,-9108,3410,-2640,-3937,-3081
17170,-18478,-7344,2445,-1148,-3480,-3799
17180,-16793,-5708,2753,-39,-2619,-3452
17190,-15336,-3649,3187,987,-2840,-3050
17200,-14258,-1481,2594,1789,-4175,-2612
17210,-14457,-53,967,1789,-3258,-1051
17220,-17334,-1207,402,1384,-470,-628
17230,-20467,-2278,-236,1039,1799,-497
17240,-21568,-3034,75,-818,3117,410
17250,-20510,-3633,2496,-2212,2731,602
17260,-18720,-3851,4806,-2664,483,-12
17270,-14925,-4033,7187,-2153,-1346,-562
17280,-14454,-3806,7518,-1104,-1040,-521
17290,-13772,-3827,7000,-974,-1176,29
17300,-13417,-4214,6118,-1012,-1479,551
17310,-13434,-4942,3993,-715,-310,762
17320,-13948,-5163,3453,-385,563,509
17330,-13685,-5427,2759,208,511,154
17340,-13356,-6095,2311,1904,-612,-761
17350,-13747,-6753,3010,2622,-811,-1044
17360,-13887,-6734,3990,3314,-1418,-1178
17370,-13644,-5990,4538,4734,-2538,-1381
17380,-13146,-5286,4897,4562,-2282,-1301
17390,-12589,-4695,5052,4137,-1906,-1060
17400,-11633,-3879,4518,3143,-974,-855
17410,-11818,-3696,4026,2754,-505,-980
17420,-11937,-3371,3461,2586,-244,-1067
17430,-11963,-2971,2961,2474,-113,-1180
17440,-12067,-2787,2667,2632,14,-1625
17450,-11797,-3158,2901,3330,-1,-1862
17460,-11943,-4103,3138,4282,-22,-2170
17470,-12198,-6189,4655,5517,-542,-2620
17480,-13269,-6111,5798,5976,-748,-2757
17490,-10633,-6409,4134,6803,-1408,-2562
17500,-12574,-7005,5008,6297,1005,-3259
17510,-12562,-6495,4845,6922,1376,-3072
17520,-12634,-6082,4807,7635,1114,-3284
17530,-13061,-6178,7000,8770,818,-3826
17540,-13535,-6160,8000,9844,1583,-3989
17550,-13756,-6773,8775,10689,2255,-4341
17560,-13796,-7729,8934,11233,2595,-4801
17570,-15144,-9181,7336,11091,3613,-5100
17580,-15718,-9437,6326,10614,3515,-4895
17590,-16137,-9076,5479,10250,3343,-4552
17600,-16543,-6868,6055,10465,3770,-3891
17610,-16237,-6752,6511,11156,3993,-3821
17620,-14180,-8973,8808,12198,3487,-3955
17630,-13050,-9667,9293,12847,2845,-4368
17640,-12854,-10114,9297,13445,2461,-4905
17650,-13353,-10331,8896,14032,2226,-5233
17660,-14834,-9162,7977,15110,650,-5347
17670,-17038,-8273,6834,15454,598,-5132
17680,-19377,-7779,5134,15364,1489,-4658
17690,-20127,-5171,93,14335,4210,-3484
17700,-19600,-4437,-227,13762,5515,-3257
17710,-18063,-5179,105,14138,4914,-3775
17720,-15926,-6171,1799,14889,3524,-4746
17730,-14092,-6406,4431,15045,3576,-5942
17740,-15948,-6544,5558,14555,4291,-5989
17750,-17184,-7371,5305,14491,4706,-5732
17760,-18786,-9811,3495,15597,5128,-5755
17770,-17448,-10976,2625,16724,5031,-5920
17780,-15905,-11763,1274,17891,5015,-6638
17790,-14675,-11997,-776,18351,5682,-7348
17800,-14818,-11074,-4209,16824,7908,-7916
17810,-15724,-9878,-4714,15705,8201,-7665
17820,-16612,-6745,-4059,15417,6528,-7069
17830,-16232,-5566,-3031,15702,6093,-6889
17840,-15652,-5179,-1557,15933,6201,-6867
17850,-15169,-5310,-68,17299,7933,-6806
17860,-14843,-5828,-974,17646,8551,-6535
17870,-14344,-6725,-1932,17032,8859,-6281
17880,-13819,-7607,-1141,15047,9222,-5782
17890,-13724,-7911,-1465,15392,9486,-5614
17900,-13937,-8149,-1913,15950,9827,-5662
17910,-13962,-8271,-1967,16178,10195,-5614
17920,-14202,-7746,-1527,16492,10567,-5296
17930,-14434,-7112,-1310,16797,10704,-5107
17940,-14487,-6649,-1029,17160,10868,-4863
17950,-14348,-6344,-849,17586,11004,-4650
17960,-14169,-6328,-1248,18094,11081,-4323
17970,-14202,-6487,-1386,17991,11265,-4295
17980,-14943,-6559,-1664,17798,11519,-4271
17990,-15116,-6764,-1567,17285,11406,-3528
18000,-15210,-6926,-1366,17243,11148,-3424
18010,-14999,-7140,-1378,17353,10777,-3476
18020,-15297,-7617,-1418,16708,10146,-3088
18030,-15471,-7087,-1384,16597,9674,-3093
18040,-15358,-6856,-1281,16420,9238,-3012
18050,-15679,-6601,-975,16090,8891,-2801
18060,-15554,-6628,-544,15606,8160,-2583
18070,-15402,-6599,-583,15276,7749,-2569
18080,-15303,-6629,-560,14864,7383,-2496
18090,-14928,-6692,-498,14560,7117,-2373
18100,-15367,-6831,-652,14374,7214,-2300
18110,-15264,-6809,-88,14104,7201,-1934
18120,-14749,-6811,463,13833,6826,-1569
18130,-14415,-6840,960,13654,6218,-1381
18140,-14355,-7115,1234,13293,6039,-1290
18150,-14512,-7226,1299,13028,5849,-1228
18160,-14471,-7318,1066,12810,5498,-998
18170,-13939,-7746,1279,12259,4605,-1014
18180,-14179,-7616,906,12210,4109,-1111
18190,-14087,-7517,779,11861,3665,-960
18200,-13975,-7607,602,11002,3175,-652
18210,-14216,-7540,671,10712,3101,-552
18220,-14456,-7380,921,10440,2889,-422
18230,-14527,-7269,1279,10195,2584,-307
18240,-14439,-6858,1904,9583,2150,62
18250,-14388,-6693,2270,9283,2001,364
18260,-14329,-6647,2711,8566,1878,1113
18270,-14706,-7017,2354,7943,1867,1413
18280,-15928,-7807,1735,7050,1851,1524
18290,-19758,-7690,673,5788,1623,1491
18300,-20618,-7038,341,5423,1524,1567
18310,-20680,-6629,555,5038,1784,1551
18320,-19892,-7116,2176,4743,2326,1327
18330,-17531,-8090,4640,5097,1197,801
18340,-16205,-7793,4962,5077,-221,958
18350,-15667,-7737,4810,4957,-1086,984
18360,-15261,-7588,2233,5714,-808,773
18370,-15687,-7082,1250,6186,61,856
18380,-16066,-6569,1030,6682,192,811
18390,-16473,-6029,1326,7221,-17,727
18400,-16151,-4733,2797,7537,-273,739
18410,-16070,-4577,3472,7490,-397,624
18420,-16028,-4616,3622,7483,-356,542
18430,-15834,-4873,2852,7500,181,495
18440,-15648,-4876,2099,7672,621,466
18450,-15478,-4823,1588,7879,1027,390
18460,-15433,-4741,899,8336,1080,-48
18470,-15473,-4647,970,8447,850,-297
18480,-15534,-4428,1073,8584,513,-580
18490,-15587,-3971,1432,8733,-371,-1068
18500,-15740,-3680,1551,8711,-875,-1271
18510,-15752,-3231,1467,8612,-1083,-1393
18520,-15396,-3644,2309,8188,-958,-1594
18530,-15332,-3382,2035,8498,-986,-1815
18540,-15220,-3170,1817,8544,-1097,-1866
18550,-15650,-3029,1677,8011,-1117,-1267
18560,-15866,-2853,2053,7926,-889,-734
18570,-15740,-2730,1913,8200,-714,-375
18580,-15382,-2948,1599,8565,-328,-246
18590,-15539,-3717,2634,9482,-215,-637
18600,-15535,-4227,3130,10158,-1233,-703
18610,-15171,-4259,3630,10657,-1855,-414
18620,-15097,-4855,3498,11383,94,-433
18630,-15905,-5253,3256,11474,659,-956
18640,-16080,-5634,3120,11480,933,-1005
18650,-16007,-5770,3118,11363,1180,-882
18660,-15496,-5638,3103,11161,1476,-1083
18670,-15303,-5147,3142,11067,1471,-1217
18680,-15159,-4399,2961,10978,1436,-1074
18690,-13784,-2749,2923,10597,1002,-575
18700,-14017,-2390,3296,10094,964,-594
18710,-13966,-1931,3742,9832,1323,-602
18720,-13787,-2013,3864,9769,1148,-994
18730,-13286,-2381,3758,9587,1061,-1375
18740,-12786,-2719,3642,9237,1256,-1565
18750,-12706,-3308,3931,8206,1794,-1621
18760,-13136,-3274,4076,7869,1842,-1653
18770,-12976,-3501,3919,7712,1660,-1815
18780,-13020,-3126,4915,6964,1583,-2235
18790,-12906,-2852,5226,6847,1332,-2446
18800,-12908,-2776,5541,6895,965,-2734
18810,-13069,-2775,5740,7066,655,-2936
18820,-14082,-3393,5868,7326,578,-2982
18830,-15052,-3988,6098,7214,814,-2779
18840,-16043,-4483,6253,6996,1004,-2378
18850,-17493,-5073,6230,6615,1138,-1558
18860,-17758,-5059,6386,6418,1014,-1486
18870,-17579,-4932,6470,6315,762,-1509
18880,-17628,-4593,7603,6154,515,-1178
18890,-17628,-4655,8549,6092,-167,-977
18900,-17251,-4930,9245,6299,-707,-980
18910,-17335,-5424,9753,6481,-1237,-1275
18920,-17094,-5646,10250,6421,-3896,-688
18930,-18024,-5421,9402,6372,-3706,-894
18940,-20304,-5390,8172,6799,-3219,-978
18950,-24216,-5686,3412,6823,-2743,-620
18960,-24432,-5065,842,4964,-2100,76
18970,-22591,-3521,-502,1931,-571,1093
18980,-14040,566,2066,-3546,1500,516
18990,-10567,1824,3113,-3599,974,-983
19000,-9425,2932,3066,-2329,16,-2004
19010,-12093,4008,876,-1022,-894,-1747
19020,-15512,2475,1745,-1090,613,-421
19030,-18324,-552,4261,559,532,397
19040,-18561,-4515,3912,4104,-1610,21
19050,-17918,-9318,-4378,2532,-1532,-4031
19060,-16651,-10629,-3280,-4775,3665,-3915
19070,-14566,-9170,-341,-9632,7022,-2806
19080,-13764,-5443,1953,-6405,5378,-1671
19090,-12962,-4838,1087,-2293,2750,-2235
19100,-12929,-4467,43,1007,772,-3518
19110,-13875,-4863,33,2788,-462,-5030
19120,-16261,-5781,2833,4327,-2892,-6112
19130,-15681,-5242,3936,5057,-3965,-5491
19140,-14715,-4229,4052,5363,-3990,-4883
19150,-13665,-3517,4785,2820,-897,-4482
19160,-13112,-3720,4674,1377,896,-3938
19170,-13109,-3732,3865,416,1794,-3424
19180,-13129,-4362,2728,-486,1370,-2509
19190,-13227,-4569,1817,-269,801,-2335
19200,-13469,-4731,1284,-46,322,-2321
19210,-13629,-5347,750,584,-55,-2302
19220,-13269,-5718,508,821,184,-2317
19230,-13782,-5913,955,743,552,-2496
19240,-13842,-5580,1900,629,474,-2407
19250,-13291,-4991,2060,1071,160,-1606
19260,-13635,-4713,2542,1110,-164,-1555
19270,-13572,-4601,3229,994,-617,-1282
19280,-13898,-4294,4000,694,-619,-499
19290,-14196,-4181,4057,442,-600,-300
19300,-14745,-3622,4728,31,-922,-77
19310,-14426,-3405,4982,-409,-1651,360
19320,-14367,-3368,4588,-769,-2228,454
19330,-14131,-3541,4919,-1604,-2739,705
19340,-13901,-3996,5381,-2354,-2886,938
19350,-13990,-5085,6227,-2913,-2149,1771
19360,-13974,-5911,6545,-3016,-1776,2142
19370,-13970,-7011,6729,-3019,-1289,2373
19380,-14313,-8532,6241,-2987,556,2306
19390,-14519,-9025,5724,-3007,1214,2188
19400,-15469,-9053,5808,-3058,1353,2015
19410,-16409,-9116,6238,-3097,1147,1775
19420,-17797,-9895,6640,-3199,1254,1224
19430,-17707,-10676,6853,-3392,526,608
19440,-17249,-9513,6935,-2736,-973,-392
19450,-17591,-8430,7063,-2228,-1800,-645
19460,-18152,-7635,7628,-2106,-2721,-581
19470,-20256,-7642,7938,-3050,-4204,-19
19480,-22151,-7753,8193,-4138,-4658,135
19490,-23599,-6845,8425,-4762,-5292,-236
19500,-23806,-6008,7662,-4547,-5708,-696
19510,-20160,-7256,4500,-3960,-6321,-1423
19520,-18752,-7274,3362,-3641,-6369,-1714
19530,-17575,-6659,3569,-3378,-6291,-1625
19540,-14326,-4673,3131,-1263,-5466,-745
19550,-13951,-4333,2546,-281,-5340,-887
19560,-14724,-4397,1534,495,-5516,-1270
19570,-15846,-4716,720,921,-5515,-1570
19580,-18576,-4256,318,1642,-2434,-751
19590,-18892,-3265,576,1994,-687,33
19600,-20529,-1045,1932,1969,768,599
19610,-20009,-808,4217,-107,354,786
19620,-18803,-443,6121,-617,-2280,343
19630,-17107,-208,6568,-483,-4403,-307
19640,-15598,-930,5376,-1315,-2026,423
19650,-15278,-1969,5051,-2419,-94,1227
19660,-13644,-3109,4013,-2294,-622,1328
19670,-12745,-3187,3309,-1409,-1256,755
19680,-11779,-3658,3020,-749,-1515,268
19690,-11891,-4024,3409,-400,-969,685
19700,-11930,-4302,4149,-548,-821,1068
19710,-10831,-4508,4527,-388,-1295,1384
19720,-10517,-4404,5115,690,-1771,924
19730,-11506,-3964,4438,1357,-1360,957
19740,-12048,-4185,4751,1297,-1015,1523
19750,-11388,-4446,4738,1363,-1400,1987
19760,-11759,-4798,5209,794,-431,1904
19770,-11405,-4825,5290,275,467,1907
19780,-10693,-4369,4771,-47,1133,1861
19790,-9586,-3534,4550,-1572,1634,1354
19800,-9235,-3053,4183,-1747,1210,871
19810,-9298,-2630,3879,-1397,980,344
19820,-9881,-3464,4466,-900,463,-280
19830,-10288,-3504,6276,-937,-611,-2717
19840,-10940,-3531,6933,-1406,-783,-3031
19850,-10765,-4613,8581,-1576,-1208,-3473
19860,-12593,-5270,9684,-1603,-213,-3867
19870,-13823,-5984,10781,-1231,864,-3663
19880,-16137,-7491,11992,545,-416,-3976
19890,-17639,-8035,11154,1687,-1174,-3788
19900,-19662,-8320,8888,2105,-1886,-3336
19910,-21973,-8895,7526,1305,-1957,-2671
19920,-22565,-7361,9902,784,335,-1432
19930,-20281,-6995,12362,1611,542,-1041
19940,-18188,-7479,14215,2517,117,-973
19950,-14996,-9316,13484,3396,-1470,-773
19960,-14890,-10617,13098,3251,-2311,-576
19970,-16006,-11700,13338,3641,-2764,-676
19980,-18380,-11746,14023,4842,-2988,-1023
19990,-22418,-7345,9437,8302,-3544,-1370
20000,-22677,-3539,2526,7590,-3256,-808
20010,-24777,-1680,-48,4239,-1620,151
20020,-23246,2846,-3403,-23,-858,2330
20030,-18508,3820,-2227,-1810,-1363,2402
20040,-14609,4121,434,-2375,-1536,1370
20050,-11477,3739,3239,91,-3190,-761
20060,-13041,1786,4193,703,-2835,-655
20070,-14355,-1400,4867,1231,-1939,-424
20080,-16014,-6781,1962,2422,-1757,-3697
20090,-16920,-8545,-166,661,-671,-5425
20100,-16900,-10549,-1153,-2423,1397,-5382
20110,-16724,-10728,1010,-4608,2865,-4349
20120,-14159,-8217,1638,-2802,-237,-2428
20130,-13680,-6085,2612,-1380,-2281,-3271
20140,-13816,-4379,3569,-279,-3737,-4004
20150,-15048,-2384,4222,742,-4712,-4052
20160,-15817,-1515,4666,793,-4110,-3474
20170,-14933,-941,4686,888,-3822,-2782
20180,-14330,-759,4990,588,-3915,-2924
20190,-13059,-1260,5181,-686,-3521,-2720
20200,-12712,-1765,4730,-1644,-3339,-2074
20210,-12385,-2236,4028,-2736,-3076,-1292
20220,-12459,-3695,3347,-3940,-2950,-633
20230,-12232,-5035,3318,-6034,-3863,8
20240,-12423,-5857,3533,-6411,-4195,188
20250,-12353,-6610,3460,-6378,-4267,431
20260,-12206,-7763,3593,-6020,-4001,787
20270,-11259,-7652,4359,-5590,-3587,1088
20280,-10788,-7495,5487,-5274,-2499,1665
20290,-11202,-7445,6051,-5174,-1845,2084
20300,-11982,-7275,6658,-4945,-1381,2362
20310,-12575,-6911,7132,-4618,-576,2679
20320,-13324,-6307,7311,-4185,1652,3545
20330,-12933,-6174,7430,-4195,2017,4103
20340,-12711,-6290,7643,-4268,1992,4506
20350,-11458,-6684,7702,-4270,2103,5546
20360,-11129,-6969,7892,-4165,2668,5813
20370,-11146,-7366,7478,-4049,3406,5701
20380,-12172,-9168,6440,-4279,4172,5408
20390,-11362,-10182,6311,-5037,4092,4480
20400,-12639,-11778,7627,-4849,3736,4070
20410,-12857,-12544,7703,-3561,2748,3751
20420,-14402,-10054,7755,-685,1700,3369
20430,-16017,-9423,8056,-432,1698,2683
20440,-16943,-9767,8287,-626,1361,2030
20450,-19181,-10553,9486,-1327,289,534
20460,-18830,-10233,9951,-1457,-490,449
20470,-17038,-9282,9436,-1177,-1437,707
20480,-15922,-8072,9820,-1538,-1909,574
20490,-16658,-7200,9290,-1354,-2628,204
20500,-18471,-7014,8302,-1467,-3796,-282
20510,-20882,-6201,6222,-1925,-5762,-1260
20520,-20320,-5848,5117,-2525,-5196,-1258
20530,-19906,-5873,4180,-3198,-3995,-1300
20540,-17677,-5137,1415,-2805,-2161,-1544
20550,-15862,-3980,660,-2249,-1018,-1464
20560,-14202,-3170,298,-1876,-236,-1493
20570,-12660,-2597,682,-1541,308,-1585
20580,-12991,-3255,1094,98,-209,-1441
20590,-15064,-3927,1214,2107,-1282,-1457
20600,-17418,-4775,1021,4168,-2640,-1477
20610,-20700,-5175,1968,6039,-4441,-1649
20620,-21599,-4382,2885,5655,-4630,-1574
20630,-20135,-4091,4697,4381,-4183,-1066
20640,-17261,-3400,7209,3067,-3084,-777
20650,-16275,-2786,7656,1709,-1108,-460
20660,-15168,-2249,7406,1246,-729,189
20670,-14186,-2097,6681,476,-787,657
20680,-11559,-2756,5722,-1279,-827,1348
20690,-10111,-3358,5030,-969,53,1264
20700,-9711,-3889,3994,-105,1758,575
20710,-12023,-4622,2594,1403,1437,-497
20720,-12764,-4159,3673,624,357,127
20730,-12977,-3680,4974,-55,-51,771
20740,-12539,-2392,6608,56,161,1268
20750,-12171,-2326,7229,-276,547,1353
20760,-11587,-2269,7215,-931,1447,1490
20770,-11227,-2344,6883,-1450,3085,1533
20780,-11320,-2943,6716,-1701,2855,1379
20790,-10603,-3170,5979,-1424,1233,951
20800,-10680,-3022,5217,-1318,460,335
20810,-9835,-3215,5309,-1785,-647,-655
20820,-9634,-3503,5859,-1857,-1206,-1139
20830,-9808,-3863,6520,-1623,-1957,-1508
20840,-9881,-4454,7202,-1285,-2936,-1912
20850,-10351,-5539,7737,-195,-4813,-2673
20860,-11945,-6591,9064,-332,-4806,-3011
20870,-12677,-7550,10225,-198,-4808,-2937
20880,-13688,-9069,11634,1343,-3683,-2826
20890,-14405,-10092,12101,1897,-2469,-2680
20900,-15836,-10353,11169,2948,-2080,-3036
20910,-18128,-9884,8255,3889,-2174,-3377
20920,-23369,-7560,4463,2549,-28,-2603
20930,-23560,-5668,6962,1556,1749,-1313
20940,-17339,-5510,13308,845,1376,-455
20950,-14382,-7993,15370,375,1532,-313
20960,-12734,-10715,16495,271,1065,-300
20970,-14511,-13074,17273,3972,-1159,-2202
20980,-18421,-12888,16129,6742,-1610,-2946
20990,-20004,-11421,12759,9479,-2524,-2832
21000,-20566,-8378,6689,10865,-2995,-2790
21010,-20229,-2462,-396,6339,-67,-1559
21020,-20230,-463,-2215,4145,751,-754
21030,-19988,819,-3056,2305,716,259
21040,-18657,1464,-2890,741,373,1420
21050,-14828,215,-879,-254,1946,1739
21060,-15202,-1090,-699,23,3278,1374
21070,-15099,-2942,-523,-128,4328,1559
21080,-15060,-8017,1378,392,5132,74
21090,-15118,-9758,1288,1834,4493,-1571
21100,-14831,-10560,257,2871,3971,-3080
21110,-14711,-11040,-315,2681,4197,-4216
21120,-15900,-11530,744,1758,4563,-5190
21130,-15464,-9843,1311,2053,3598,-4622
21140,-14672,-7235,1856,2416,2097,-3934
21150,-14201,-3512,2791,2570,282,-2958
21160,-14583,-2319,3801,2378,486,-2260
21170,-13661,-735,4507,2322,1511,-1032
21180,-12865,-643,3934,2160,2460,-711
21190,-12581,-1064,4012,1763,2997,-743
21200,-12104,-1536,4167,1411,2507,-900
21210,-11522,-2947,3240,761,1242,-996
21220,-11468,-4327,2914,-195,918,-1201
21230,-11893,-5903,3112,-1264,753,-1417
21240,-12029,-8960,3320,-2060,411,-1280
21250,-11920,-10030,3631,-1796,494,-1092
21260,-11969,-10513,3759,-1163,577,-896
21270,-12189,-10591,4206,-499,623,-589
21280,-12291,-9321,5350,749,342,181
21290,-12465,-8336,5722,1188,270,557
21300,-12800,-7467,5568,1401,191,1005
21310,-13309,-5987,4237,927,-729,1740
21320,-13201,-5497,3995,117,-1585,1917
21330,-12897,-4862,3907,-575,-2176,1970
21340,-12279,-4550,3702,-1023,-1731,2088
21350,-11528,-4712,3970,-1428,-276,2399
21360,-11353,-4605,4652,-1431,-873,2547
21370,-12041,-4867,5598,-1344,-2085,2622
21380,-13626,-7076,6380,-1322,-4167,3318
21390,-15456,-8799,6942,-2288,-2660,3662
21400,-16649,-10473,5444,-3394,-1739,3340
21410,-16004,-10429,3995,-3163,-1804,2646
21420,-16082,-10341,3187,-2778,-952,1993
21430,-16776,-9939,3410,-2552,-9,1392
21440,-16638,-9806,6085,-2878,1089,437
21450,-16306,-9565,7469,-3009,1360,206
21460,-16024,-9457,8538,-3132,1241,28
21470,-16100,-8673,9333,-3273,200,-203
21480,-16564,-8941,8726,-3758,176,-171
21490,-17285,-10138,7569,-4551,-294,-269
21500,-19718,-10092,5686,-5096,-1276,-621
21510,-19612,-8477,4448,-3368,-2642,-1676
21520,-18633,-7879,2914,-2195,-3027,-1978
21530,-18048,-7848,1415,-1175,-3226,-2425
21540,-16449,-7378,456,1418,-3255,-3803
21550,-14853,-6425,265,3193,-3177,-4542
21560,-14258,-5087,0,4587,-2629,-4956
21570,-15000,-2982,1073,4986,-1653,-3924
21580,-15839,-2594,1379,4378,-1172,-2743
21590,-17015,-3011,2056,3477,-405,-1872
21600,-18089,-3757,2479,2986,1014,-1315
21610,-19334,-5871,3577,1858,2573,-550
21620,-18287,-5624,4564,999,781,-360
21630,-17203,-5160,5866,111,-468,98
21640,-14811,-4787,8206,-451,-740,1177
21650,-13260,-5034,8097,578,-198,1233
21660,-12412,-5530,7538,2189,631,815
21670,-11636,-6470,5674,4860,1492,223
21680,-11697,-6842,4457,5809,1351,341
21690,-12172,-6936,3731,6290,1314,792
21700,-11966,-6836,3278,6469,1451,1472
21710,-12093,-5595,3044,6975,1506,2456
21720,-11946,-4937,3079,7204,830,2976
21730,-11747,-3894,2948,7352,-152,3493
21740,-11358,-1600,3343,6619,-2493,3900
21750,-9984,-1812,3767,5955,-4133,3195
21760,-10333,-1638,3682,5314,-4974,1885
21770,-10062,-2025,4633,3654,-2529,1181
21780,-9507,-1752,4509,3322,-1639,775
21790,-9258,-1544,4250,2891,-884,311
21800,-8970,-1074,4418,2190,-314,-39
21810,-8699,-805,4784,713,-149,-995
21820,-9022,-772,5434,127,104,-1717
21830,-9227,-1157,5704,-399,59,-2198
21840,-10482,-2522,5764,-1391,-155,-2734
21850,-11406,-3795,7006,-2109,-166,-2944
21860,-13004,-5765,9792,-1837,-761,-3418
21870,-14432,-6685,11250,-1183,-1078,-3616
21880,-15947,-7726,12825,-311,-948,-3506
21890,-20286,-9288,10794,2390,-16,-3443
21900,-23131,-8953,6520,2058,-81,-2986
21910,-25284,-7357,4810,-44,1054,-1800
21920,-23797,-5004,9345,-1244,2862,900
21930,-20433,-6159,14091,-168,1555,842
21940,-17692,-8972,17190,1445,-357,267
21950,-15119,-11844,18380,2724,-2901,213
21960,-17067,-16325,18549,5136,-5431,-50
21970,-22606,-16809,16902,8136,-5214,-522
21980,-24587,-12844,10166,11594,-5947,-171
21990,-23137,-5289,49,11808,-4599,299
22000,-23606,1012,-5893,2360,4753,2251
22010,-21506,3349,-7540,-112,6337,3574
22020,-17022,3737,-5893,-1681,5105,3613
22030,-11401,4281,-866,853,-608,311
22040,-12454,3120,733,2256,-2438,-129
22050,-14262,34,2928,3057,-1582,1147
22060,-16739,-6723,2290,5313,1263,1077
22070,-16946,-7323,-797,3992,1883,-630
22080,-16832,-6801,-3507,-606,3758,-1893
22090,-17030,-7608,-1392,-9386,10255,-1983
22100,-17463,-7006,308,-8754,9422,-2503
22110,-16498,-6204,1595,-5888,5945,-2930
22120,-14801,-4315,1091,-109,375,-4165
22130,-15194,-3567,1914,273,-490,-4591
22140,-14712,-2692,3390,-137,-1115,-4290
22150,-13840,-932,3993,-183,-2099,-3532
22160,-13069,-521,3663,-182,-2577,-3223
22170,-12603,-566,3322,-553,-2889,-3025
22180,-11928,-2051,1835,-2182,-1880,-2325
22190,-11907,-3128,1640,-2999,-1738,-2150
22200,-11387,-4266,1323,-3589,-2109,-2077
22210,-11703,-5092,856,-4067,-1894,-2078
22220,-12160,-6082,926,-5203,-1696,-1440
22230,-12227,-6580,1466,-5185,-1488,-1302
22240,-12475,-7125,2031,-4524,-1373,-1402
22250,-12871,-7389,2653,-3596,-1698,-1340
22260,-12580,-7365,3375,-2959,-3062,-595
22270,-11839,-7003,4010,-3155,-3402,-284
22280,-11346,-6313,4899,-4066,-2884,408
22290,-11648,-6138,5310,-4245,-2763,663
22300,-12030,-5793,5306,-3970,-2649,1043
22310,-12148,-5977,5084,-3006,-2528,1937
22320,-11948,-6074,5019,-2558,-2367,2289
22330,-11676,-6015,5225,-2322,-1888,2683
22340,-11410,-6040,5771,-2278,-1474,3024
22350,-12754,-7656,6553,-2410,-2200,3661
22360,-13697,-9341,6494,-2512,-3111,3960
22370,-14197,-10701,6218,-2523,-3145,4043
22380,-16039,-12210,4741,-1759,139,2881
22390,-16492,-11118,4348,-1106,1051,2290
22400,-16966,-9818,5556,-1037,1315,1856
22410,-18317,-10506,8990,-1542,750,515
22420,-17554,-11080,9601,-1365,-362,-162
22430,-16481,-11173,9690,-1120,-1311,-699
22440,-16136,-10931,9633,-826,-1604,-1020
22450,-15951,-10244,9469,-543,-2715,-1407
22460,-17049,-9342,9178,-799,-2944,-1640
22470,-20861,-8980,7837,-2188,-3142,-2484
22480,-22438,-7984,7344,-2335,-4020,-3062
22490,-19719,-6740,3794,-1432,-5521,-2866
22500,-14746,-5855,1465,1193,-3212,-3957
22510,-14084,-4767,1443,2645,-4001,-4043
22520,-15604,-4515,396,4899,-3335,-3523
22530,-18237,-4975,-59,5354,-590,-2847
22540,-20342,-5196,-88,5125,2549,-2030
22550,-20957,-5214,1842,4253,6362,-1128
22560,-20844,-4335,2280,3967,6821,-1099
22570,-19775,-3610,3317,2978,5707,-568
22580,-16853,-3519,6416,1590,2830,-276
22590,-15801,-2832,6771,721,-2561,256
22600,-14009,-2797,7435,15,-3356,1129
22610,-12953,-3373,8024,-605,-2194,1798
22620,-11608,-5080,6783,1250,1528,2005
22630,-11267,-5360,4846,3011,2695,1483
22640,-11216,-6231,3689,4086,3238,972
22650,-12956,-7583,3531,5158,2889,1178
22660,-12836,-7158,3533,5876,1710,2008
22670,-12940,-6286,3451,6483,320,2517
22680,-12997,-5547,3159,6925,-652,2793
22690,-12361,-3866,2912,6998,-1802,3182
22700,-12032,-2795,3350,6444,-2417,3097
22710,-11555,-1597,3774,5844,-3488,2608
22720,-7431,-90,3079,5471,-6840,1104
22730,-8567,60,2587,4003,-5297,-341
22740,-9303,-782,4841,1770,-1715,-306
22750,-7818,32,3899,864,-590,-69
22760,-8171,-102,4044,230,-431,-592
22770,-8392,-656,4389,-418,-394,-1141
22780,-8900,-2142,3746,-1163,-920,-1901
22790,-9224,-3086,4582,-2088,-808,-1863
22800,-9798,-4043,5426,-2555,-813,-1926
22810,-10192,-4749,6314,-2793,-776,-1915
22820,-12442,-5207,9714,-2828,759,-2067
22830,-13331,-6017,11805,-2734,1133,-1867
22840,-16014,-6337,13326,-2050,888,-1998
22850,-18081,-8307,14084,1921,-1622,-1663
22860,-19649,-8913,10564,4011,-2244,-2307
22870,-21859,-9885,6813,3745,-1564,-2096
22880,-23456,-11086,6819,1429,424,-716
22890,-20520,-11334,12935,1599,1613,607
22900,-16218,-11873,13161,3864,-1321,-157
22910,-12922,-12192,12600,5181,-3719,-771
22920,-12984,-14625,14950,6149,-3612,-1301
22930,-16584,-15571,15923,7775,-3091,-1569
22940,-22610,-15134,16409,9496,-2523,-1997
22950,-26431,-4820,4331,11467,-4263,-759
22960,-26183,221,-1765,8327,-987,557
22970,-21824,6221,-4482,4053,3285,2565
22980,-18219,7927,-3534,-1187,5959,4294
22990,-13917,7678,-624,-1872,4262,3145
23000,-10267,7100,887,-554,1319,1393
23010,-14691,1625,6013,2023,110,758
23020,-17005,-2973,8545,4930,599,1969
23030,-17363,-6615,7416,9270,-1388,1346
23040,-16248,-8002,1746,10933,-3515,-1192
23050,-16171,-8057,-5744,-5256,6814,-3190
23060,-16609,-8795,-2759,-13887,14081,-1438
23070,-16938,-8176,75,-15269,15693,-583
23080,-15687,-5421,2691,-6663,4631,-2036
23090,-15034,-4716,1522,-2143,-11,-3390
23100,-15038,-4146,1161,33,-1132,-4235
23110,-14597,-3090,3630,-660,-345,-4351
23120,-13550,-2091,4431,-1186,-699,-4007
23130,-12345,-1870,4023,-1356,-1464,-3866
23140,-12747,-1946,4163,-1659,-1656,-3640
23150,-11625,-2285,3275,-2009,-1620,-3030
23160,-12003,-2854,2378,-2278,-846,-3040
23170,-12097,-4502,1936,-3734,-268,-2729
23180,-10694,-5575,1844,-4022,-558,-2349
23190,-11834,-6267,2683,-4075,-508,-2624
23200,-11438,-7245,3565,-3354,-2404,-2326
23210,-11778,-7346,3803,-2972,-2838,-2179
23220,-11668,-7440,3954,-2781,-3162,-1895
23230,-11271,-7822,3968,-2703,-3194,-1390
23240,-11230,-7788,4202,-2913,-2852,-846
23250,-11370,-7721,4614,-3080,-2435,-96
23260,-12208,-7410,4843,-2938,-2144,674
23270,-12181,-6207,4602,-1881,-1529,2248
23280,-11957,-5286,4096,-1455,-764,2642
23290,-12293,-4598,4074,-1499,97,2787
23300,-12021,-4473,5624,-1608,-27,3345
23310,-11501,-4851,6490,-1511,-808,3645
23320,-11249,-5772,7124,-1543,-1453,4031
23330,-11856,-7357,7082,-1801,-1529,4562
23340,-15817,-10706,7177,-3363,523,5107
23350,-17517,-11215,6563,-3408,718,4052
23360,-17624,-10495,5638,-2800,-41,2907
23370,-17726,-9769,5011,-2653,-186,2279
23380,-17229,-11622,5036,-2961,-1044,961
23390,-15244,-12894,9803,-1104,-552,-995
23400,-17411,-12387,10035,-1789,-1407,-1366
23410,-19648,-11713,8711,-2039,-1917,-2270
23420,-21540,-10634,7642,-2028,-2501,-3293
23430,-22201,-8014,5023,-985,-4111,-4336
23440,-21139,-6795,3513,-541,-4950,-4207
23450,-19703,-5654,2297,-188,-5371,-3939
23460,-16223,-4336,2999,643,-4812,-3574
23470,-15375,-3199,3320,1875,-4762,-3738
23480,-14708,-2043,2959,3355,-4709,-3779
23490,-14505,-2124,2539,4465,-4227,-3788
23500,-18894,-3437,144,5970,-147,-3444
23510,-20774,-3979,-437,5655,2714,-2481
23520,-21500,-4091,-95,4641,5029,-1401
23530,-20971,-4089,2358,2725,5422,-217
23540,-19858,-3609,3992,2084,3508,385
23550,-18093,-3299,5379,1536,990,864
23560,-16032,-3261,7115,229,-1106,1284
23570,-14705,-3831,8204,-159,-275,1885
23580,-14058,-4128,7916,505,727,2039
23590,-13089,-4619,5697,1562,1423,1867
23600,-11508,-5323,4767,2940,2571,1232
23610,-11270,-6007,4322,3473,3180,1084
23620,-10937,-6339,3576,4922,3183,1597
23630,-11418,-6264,2953,5885,2442,1795
23640,-11380,-5857,3067,6616,1292,1948
23650,-12873,-4516,2698,7301,-533,2322
23660,-13710,-3709,3247,7068,-731,3216
23670,-13428,-2585,3194,6943,-1623,3848
23680,-12948,-1296,3492,6655,-2649,3731
23690,-10554,883,4785,5860,-5716,1750
23700,-8531,692,3819,5470,-6724,563
23710,-9436,604,3914,3802,-4895,-325
23720,-8823,-51,4784,376,-1024,133
23730,-8713,-194,4633,-605,-354,-377
23740,-9081,-638,4791,-1416,19,-1034
23750,-8721,-1799,4331,-2113,-307,-1922
23760,-9627,-2284,5393,-2822,-279,-2345
23770,-9147,-2759,5542,-3188,-895,-2322
23780,-8975,-3661,6104,-3133,-873,-2291
23790,-10665,-5271,8039,-3130,1207,-2160
23800,-11721,-5846,9485,-2963,1124,-2465
23810,-13245,-6572,11291,-2282,584,-2849
23820,-15042,-6865,12290,-960,-98,-2866
23830,-17985,-8802,14009,2175,-2204,-2419
23840,-20092,-9317,9943,3643,-2862,-2533
23850,-24967,-9213,7628,492,149,-557
23860,-23936,-7866,10007,81,1534,435
23870,-20368,-7822,12569,1327,624,855
23880,-14059,-9997,13661,3087,-896,239
23890,-12218,-10703,13664,4825,-3489,-293
23900,-13404,-12343,14952,4739,-3921,-750
23910,-17066,-14273,16299,5696,-3356,-848
23920,-26027,-12482,13713,9747,-5037,-958
23930,-25541,-6138,5985,10785,-7144,-171
23940,-23893,-1116,-1230,8333,-3321,1359
23950,-21699,4965,-4074,265,5187,4084
23960,-17425,6732,-4389,-1852,5529,4105
23970,-13951,6796,-2414,-3139,4146,2659
23980,-10455,6007,165,-2527,1301,1036
23990,-13366,2462,3600,220,-1573,270
24000,-16487,-1930,6366,2067,-811,1294
24010,-17983,-5760,6658,5513,-1497,1200
24020,-16550,-7667,-2452,5373,-2970,-3468
24030,-16917,-8016,-4518,-3247,2726,-4113
24040,-16354,-9017,-2200,-12008,10367,-2236
24050,-16358,-8472,236,-14387,13985,-987
24060,-15878,-5908,2507,-7100,6030,-2233
24070,-15001,-5333,2042,-3073,1031,-3380
24080,-15831,-4301,2606,-353,-1026,-4676
24090,-15756,-3549,4249,-806,-1091,-4328
24100,-14043,-2444,5169,-918,-1407,-3802
24110,-12432,-1981,4191,-1005,-954,-3962
24120,-11642,-2471,3864,-1852,-1475,-4127
24130,-11692,-3004,4405,-2833,-1761,-4108
24140,-11485,-3379,3203,-3143,-1930,-3534
24150,-10180,-4617,1714,-3010,-2116,-2703
24160,-11765,-5771,1714,-3674,-1400,-3198
24170,-12208,-6491,1951,-4034,-1294,-2925
24180,-10720,-7087,2179,-2879,-2683,-2383
24190,-11264,-6850,2572,-2261,-2732,-2264
24200,-11108,-6550,3032,-1864,-2903,-1826
24210,-11067,-6695,4191,-2270,-2870,-1213
24220,-11551,-7036,4889,-2590,-2287,-582
24230,-11828,-7185,5653,-2825,-1882,238
24240,-12015,-6967,5955,-2775,-1758,1065
24250,-12309,-5694,5343,-1956,-1483,2277
24260,-12618,-5572,5072,-1705,-1369,2667
24270,-10113,-4618,6465,-2347,2027,4104
24280,-12071,-8112,7608,-3157,364,4849
24290,-13945,-9652,7799,-3550,346,4966
24300,-15960,-10915,7575,-3700,1369,4165
24310,-16614,-11590,6490,-3044,1783,3189
24320,-16922,-11791,5180,-1987,2055,1916
24330,-16962,-12502,6015,-2221,1896,1254
24340,-17201,-13029,7575,-2373,1376,293
24350,-16591,-12166,9538,-1632,-301,-1093
24360,-16749,-11328,9996,-898,-876,-1526
24370,-17258,-10449,10219,-422,-1559,-1697
24380,-18460,-9343,9836,-511,-2526,-1915
24390,-22888,-9246,8927,-2014,-4311,-2306
24400,-24660,-8808,8166,-2098,-5425,-2501
24410,-23829,-8013,6386,-1744,-6854,-2532
24420,-19867,-7702,3023,-1746,-5844,-2027
24430,-18098,-7385,2700,-1695,-3732,-1772
24440,-17477,-6682,3282,-988,-1743,-1809
24450,-16452,-5323,3818,644,-754,-1820
24460,-13868,-3758,2170,3857,561,-1998
24470,-14639,-4211,1440,4523,2265,-2189
24480,-16609,-4911,636,5148,3895,-1937
24490,-21202,-5880,-198,5933,4990,-764
24500,-23045,-6078,-4,5561,4556,-400
24510,-21799,-5227,3933,4516,-11,-1129
24520,-20582,-3598,4657,4938,-2904,-2119
24530,-18256,-2740,5230,4689,-4355,-2372
24540,-16770,-2107,6166,3694,-4109,-2186
24550,-13294,-1013,6166,2290,-3534,-667
24560,-11649,-991,5160,1654,-3258,-33
24570,-10530,-1250,4392,952,-2096,288
24580,-9823,-2234,3399,604,1496,289
24590,-9761,-2931,2849,1148,2365,-32
24600,-9681,-3532,2194,1914,2625,-130
24610,-10003,-4623,1292,2509,2875,-160
24620,-10626,-4936,1553,2917,3718,256
24630,-11903,-5454,2558,3187,2891,540
24640,-12488,-5256,3190,3716,1092,1046
24650,-11396,-4433,4303,4339,-1770,2076
24660,-11590,-3703,4340,4343,-1929,2085
24670,-11585,-3021,4698,3844,-1523,2280
24680,-9623,-1749,4814,2222,-2221,2393
24690,-9123,-596,5547,1636,-2354,2059
24700,-7702,40,4769,1541,-3014,1505
24710,-8053,106,3468,1036,-2919,422
24720,-9505,-1202,4517,-1868,606,-615
24730,-9838,-1200,5346,-2504,755,-1290
24740,-8513,-1372,5542,-2553,-2341,-2390
24750,-8361,-2552,6501,-2783,-3681,-3125
24760,-9256,-4259,7389,-2494,-3861,-3714
24770,-10971,-7366,10739,-820,-2889,-4197
24780,-11999,-8615,12220,671,-2785,-4605
24790,-14310,-9582,13183,2085,-2301,-4770
24800,-17979,-11476,11616,3533,-3354,-3808
24810,-21437,-11569,8043,3424,-3879,-3460
24820,-23930,-11292,5486,1932,-3443,-2362
24830,-23342,-7664,8257,263,992,268
24840,-19098,-7066,12972,-1020,1777,947
24850,-15335,-8232,17519,-116,887,634
24860,-12022,-11703,21445,1618,-811,234
24870,-15349,-15029,21524,6060,-3087,-920
24880,-19497,-14877,19213,8618,-4843,-1089
24890,-22384,-12341,14576,10776,-6588,-646
24900,-21442,-1856,198,7947,-2446,1963
24910,-23246,88,-2281,3202,1768,3050
24920,-23775,1775,-3438,-357,4464,4650
24930,-22235,3609,-4802,-2446,5161,6040
24940,-14695,3387,-1811,-4872,4623,6283
24950,-13102,2067,854,-3183,3378,4041
24960,-15007,-3305,894,1574,-677,968
24970,-16567,-6028,1530,1780,-1102,552
24980,-17433,-8463,3083,1389,-1270,-338
24990,-16717,-9722,3210,1503,-1523,-1936
25000,-15050,-9330,-1398,-1639,2717,-5414
25010,-17025,-10352,39,-4435,6483,-6217
25020,-18556,-10586,2296,-4901,7097,-6153
25030,-15371,-6653,3380,-3107,3576,-5503
25040,-14270,-5007,4263,-589,-1937,-5698
25050,-13653,-4045,5089,-284,-1339,-5495
25060,-13890,-3479,6018,-225,-597,-5118
25070,-13217,-2488,5212,779,-567,-3525
25080,-12747,-1858,3913,702,-484,-2601
25090,-11997,-1578,3295,-195,52,-1509
25100,-11925,-1655,3322,-1246,627,-629
25110,-10401,-2081,2034,-1778,1002,263
25120,-9462,-3177,2004,-2122,1002,166
25130,-10292,-4005,2355,-2582,430,-428
25140,-9644,-6186,1830,-3455,-1261,-398
25150,-9817,-7669,2375,-3854,-1230,-715
25160,-10952,-8120,4274,-2559,-153,1129
25170,-11197,-7087,4795,-2792,-389,2019
25180,-11610,-6484,4967,-2914,-542,2452
25190,-12010,-6175,4840,-2976,-984,2697
25200,-11790,-5846,4458,-2886,-1363,2754
25210,-11520,-4811,4143,-3057,-715,2905
25220,-11317,-4588,4401,-3240,-128,3147
25230,-11165,-4412,5048,-3237,234,3430
25240,-11434,-5943,6464,-3045,99,4230
25250,-12398,-7925,7259,-3585,-31,4810
25260,-14551,-9892,8174,-4532,715,5031
25270,-16502,-11808,6596,-3910,770,3770
25280,-17562,-10812,4441,-2637,2008,2308
25290,-18192,-10964,4936,-2828,2435,1686
25300,-18567,-10884,6685,-3016,1756,793
25310,-18082,-11178,7936,-2745,1035,19
25320,-17461,-11358,10042,-2399,102,-929
25330,-17576,-10943,10032,-2062,-668,-1093
25340,-18449,-10386,8987,-2084,-1651,-1264
25350,-21609,-10139,7059,-3435,-3296,-2063
25360,-23791,-9521,6341,-3183,-4168,-3065
25370,-23881,-8878,5154,-2468,-4807,-3680
25380,-18603,-7586,1443,-1216,-4863,-4211
25390,-15732,-7331,649,-534,-5068,-4531
25400,-14534,-6924,1443,311,-4791,-4984
25410,-13991,-4739,2688,3823,-5989,-5002
25420,-14568,-4691,2567,5269,-5904,-4822
25430,-16001,-5616,1592,6204,-4592,-4418
25440,-20302,-6280,-106,6361,692,-3224
25450,-20688,-6229,79,5811,3268,-2542
25460,-20777,-6247,446,5350,5281,-2193
25470,-18553,-5065,2648,4350,6199,-1145
25480,-17409,-4457,4049,3282,4577,-673
25490,-16253,-4420,5564,2445,2021,-515
25500,-16086,-3802,6596,2193,-222,-272
25510,-14714,-3419,7212,1941,-2732,1147
25520,-14016,-3543,7718,2139,-1765,1159
25530,-13256,-4523,7854,3224,457,1020
25540,-12091,-6134,6299,6885,2610,381
25550,-12052,-6514,5300,7932,1765,154
25560,-11630,-6969,4729,8142,643,587
25570,-11934,-6524,4672,8138,41,1238
25580,-12605,-5866,4324,8729,783,2468
25590,-12396,-5131,3785,8856,1271,3088
25600,-11778,-4474,3357,8579,1405,3577
25610,-11191,-2989,3081,6994,1088,4333
25620,-10965,-1871,3694,5912,136,4621
25630,-9015,-1357,3179,5229,-1795,4596
25640,-8916,-1134,2066,3028,-1458,2549
25650,-8434,-1157,2262,1908,162,1911
25660,-8469,-707,3037,1451,932,687
25670,-6572,616,3025,1651,504,-837
25680,-6546,936,2930,1869,471,-1388
25690,-6796,426,3587,1566,283,-1927
25700,-7687,-324,4156,971,160,-2407
25710,-9796,-1964,5963,-620,-105,-2713
25720,-10859,-2933,7251,-921,-540,-2887
25730,-11791,-3937,8433,-441,-1208,-3324
25740,-15815,-6048,11689,2063,-923,-4079
25750,-17056,-8114,13369,3273,-899,-3938
25760,-19564,-9468,13672,4393,-601,-3978
25770,-22511,-9185,10336,5019,-303,-3709
25780,-27187,-8155,5460,-1094,1192,-521
25790,-27603,-7129,7256,-2725,2672,1073
25800,-25068,-6336,10640,-1627,2661,2285
25810,-17681,-10514,18334,2396,-2521,969
25820,-14615,-12547,19515,4040,-5092,331
25830,-14514,-12896,21000,5118,-6790,-67
25840,-20846,-12327,18442,8634,-8256,58
25850,-20533,-7057,10389,9741,-9667,315
25860,-18314,-2808,2416,8072,-8175,796
25870,-19886,2013,-3858,-626,1628,1778
25880,-19989,2828,-5172,-2923,4300,2618
25890,-18566,4028,-6656,-3455,5817,3222
25900,-14404,1232,-1652,-3702,4904,2368
25910,-14044,-788,697,-1210,2037,1084
25920,-14886,-2769,1744,1106,-315,518
25930,-16477,-5187,2912,1786,-978,892
25940,-18012,-8729,5044,1353,-386,1970
25950,-16958,-7766,2279,710,218,1498
25960,-15774,-6998,-1055,-2122,2207,65
25970,-16152,-7088,-1495,-6026,6182,-998
25980,-16113,-6247,-481,-8283,9502,-1798
25990,-15999,-5498,451,-6343,6427,-2448
26000,-15081,-4939,851,-3877,2754,-3231
26010,-14904,-3807,2064,-1391,-1256,-5040
26020,-14707,-3503,3234,-1489,-2590,-5234
26030,-13957,-3596,4550,-1506,-3255,-5131
26040,-12333,-2316,3853,-779,-1426,-3880
26050,-12512,-1664,3115,-1341,-879,-3262
26060,-11730,-3674,2856,-2781,-593,-2639
26070,-10862,-5384,3382,-2910,-1242,-2483
26080,-10692,-6086,3091,-2840,-2239,-2444
26090,-11048,-6663,2961,-2708,-2301,-2136
26100,-11373,-7242,2835,-2531,-1907,-1679
26110,-12051,-7945,3792,-2712,-2138,-1338
26120,-11751,-8065,4381,-2697,-2699,-1199
26130,-11391,-7978,5021,-2522,-3055,-991
26140,-10996,-7624,5422,-2265,-2434,-214
26150,-11490,-6955,5345,-2224,-1510,288
26160,-11646,-6556,5391,-1989,-759,798
26170,-12217,-5537,4970,-1284,-219,1320
26180,-11747,-5268,5322,-434,77,2799
26190,-11052,-5088,6061,-590,215,3296
26200,-10950,-5262,7125,-830,192,3482
26210,-12453,-7005,8095,-1205,-512,4355
26220,-13622,-8427,8244,-1628,-436,4843
26230,-15525,-9646,7815,-1925,430,4785
26240,-16914,-9508,6823,-2037,992,4024
26250,-17670,-9370,6147,-1691,668,2402
26260,-17125,-10405,6276,-2022,-66,1720
26270,-16377,-11566,7004,-2043,-731,687
26280,-15351,-13377,8855,-897,-756,-1409
26290,-15346,-13540,9894,-281,-798,-1919
26300,-17548,-12370,10131,-657,-2034,-2062
26310,-20882,-10658,9347,-1500,-2693,-2823
26320,-23974,-9589,8863,-2126,-3727,-3627
26330,-24507,-9098,7637,-2025,-5439,-4020
26340,-21365,-7476,2920,-1175,-6568,-4696
26350,-18814,-6876,1064,-1265,-5282,-4538
26360,-16701,-6473,1063,-1415,-3362,-4315
26370,-15226,-3692,2988,1127,-1928,-3737
26380,-14762,-2397,3287,3244,-3200,-3662
26390,-15807,-2319,3058,5072,-3890,-3651
26400,-20199,-4329,1950,6359,-1752,-2738
26410,-21487,-4936,1607,5927,44,-2245
26420,-21976,-5104,1729,4920,2386,-1759
26430,-21154,-5328,2307,3518,4568,-1211
26440,-19294,-4273,4382,1887,5366,-341
26450,-17701,-4214,5510,1348,2664,-211
26460,-16595,-4042,6388,920,-46,-44
26470,-14094,-3485,7480,1073,-673,1488
26480,-13178,-3426,7172,1633,360,1746
26490,-12862,-3260,6608,2318,1622,1681
26500,-11317,-3769,4733,3543,2951,2109
26510,-11143,-4693,4492,4093,3012,1885
26520,-11242,-5254,4080,5176,2211,1509
26530,-11599,-5732,3527,6569,824,2132
26540,-11586,-5556,3521,6711,800,2772
26550,-11822,-4912,3352,6946,877,3066
26560,-11756,-3170,2040,6609,850,3563
26570,-11436,-2460,2224,5763,685,3681
26580,-11296,-1467,1910,5044,-409,3247
26590,-10966,-789,2323,4156,-1657,2499
26600,-9147,-35,3553,2516,-4071,552
26610,-8345,243,3872,2100,-3935,-183
26620,-8007,852,4309,1727,-3091,-611
26630,-6178,1071,3603,976,-3615,-1369
26640,-8257,57,4427,-682,-1602,-2139
26650,-8526,-571,4582,-1952,393,-1801
26660,-9345,-1685,5004,-3694,346,-2135
26670,-8979,-3002,6176,-4225,-643,-2252
26680,-9605,-4028,7027,-3310,-503,-2153
26690,-10451,-4779,8465,-2304,670,-2351
26700,-14263,-7619,12680,418,649,-3431
26710,-16775,-9071,14562,2327,-609,-3708
26720,-18972,-10260,15112,4121,-2233,-3775
26730,-24801,-10138,5519,2963,-3232,-2848
26740,-26674,-9020,5077,-1041,-1699,-1201
26750,-26645,-7267,6847,-2424,684,404
26760,-18983,-7459,16767,1250,435,1712
26770,-13744,-9918,19898,3603,-474,991
26780,-12134,-12283,21235,4428,342,1381
26790,-17520,-15425,21478,6421,-5139,-310
26800,-20274,-13879,17306,9779,-8316,-1596
26810,-21442,-9461,9805,11689,-9397,-1957
26820,-18518,-17,-2734,10734,-9431,-1316
26830,-21071,2814,-4264,3199,1789,1306
26840,-21550,3848,-5089,102,4277,1765
26850,-20535,5057,-5818,-1133,4703,2096
26860,-16055,3196,-506,-1695,2930,1945
26870,-15375,1156,2445,-117,738,1357
26880,-15826,-1489,4557,1469,-284,1323
26890,-17553,-6148,4856,2675,715,1740
26900,-17027,-7400,4006,1666,1587,1121
26910,-16020,-7366,1893,-616,2680,-187
26920,-14963,-6975,-1168,-3806,4445,-1363
26930,-14945,-7485,-2449,-8900,10440,-1802
26940,-16029,-6904,-1261,-8737,10285,-2347
26950,-15154,-3035,2305,-638,-1810,-4084
26960,-15145,-1983,4726,-1075,-2254,-4460
26970,-13834,-1722,5896,-1352,-2151,-4089
26980,-12048,-1552,5474,-1348,-2283,-3724
26990,-12942,-909,4284,-1609,-2366,-3430
27000,-11286,-2414,3161,-4159,-2046,-2378
27010,-11490,-3658,3554,-4819,-1489,-2264
27020,-11631,-4756,3266,-4535,-1728,-2315
27030,-11758,-6896,2455,-4438,-2318,-2937
27040,-11504,-7970,3197,-4481,-2396,-2796
27050,-11572,-8446,3285,-3616,-2564,-2483
27060,-12050,-8458,3542,-2548,-2866,-2027
27070,-11854,-8118,4333,-2557,-3450,-1762
27080,-11172,-7780,5104,-2611,-3961,-1528
27090,-10969,-7659,5716,-2517,-3700,-1074
27100,-11250,-7306,6577,-2122,-3058,440
27110,-10981,-6850,6517,-1797,-2979,1346
27120,-11123,-6551,6183,-1717,-2632,1837
27130,-10816,-5674,5579,-1812,-1762,2148
27140,-10821,-5075,5732,-1734,-940,2121
27150,-10716,-4744,5973,-1609,-193,2395
27160,-10367,-4665,6107,-1512,73,2823
27170,-11248,-7359,6674,-1645,-1127,3983
27180,-11962,-9152,6739,-1881,-1679,4644
27190,-16160,-11432,6313,-1914,274,3650
27200,-17234,-11197,6092,-1371,632,2707
27210,-17571,-9563,6482,-932,822,2116
27220,-18213,-9377,7797,-1084,1162,1469
27230,-17307,-10832,9581,-1716,-257,143
27240,-15376,-10878,9949,-1770,-672,-433
27250,-15386,-11142,10809,-1911,377,-483
27260,-16568,-10626,10705,-1402,-591,-841
27270,-17487,-10473,10751,-1857,-1561,-1031
27280,-18845,-10214,9913,-2460,-2432,-1282
27290,-20607,-10352,9295,-2901,-3536,-1759
27300,-22280,-8858,7395,-2724,-5841,-3033
27310,-20718,-7985,5242,-1978,-7263,-3211
27320,-18183,-6779,2484,-750,-8197,-3532
27330,-15125,-6498,782,301,-4500,-3926
27340,-14915,-5961,949,1172,-2800,-4167
27350,-14229,-5066,1222,2605,-2599,-4312
27360,-14521,-4318,1180,4148,-2579,-4361
27370,-17745,-5641,1086,6301,-685,-3787
27380,-19552,-6294,1828,6584,94,-3442
27390,-20685,-6409,2579,6463,2772,-2495
27400,-20359,-5895,3111,5529,4954,-2180
27410,-19840,-5247,4117,4287,6272,-1610
27420,-18662,-4938,5635,2988,5688,-947
27430,-15444,-4283,8192,1876,1155,-236
27440,-14219,-3934,8332,2212,-172,169
27450,-13427,-3528,8204,2626,-358,653
27460,-11520,-3733,7192,3775,1391,1244
27470,-11295,-4201,5884,4825,2257,1140
27480,-10567,-4673,4026,5599,2724,898
27490,-10959,-5465,3387,5657,3124,646
27500,-11088,-7167,3915,6186,2637,1405
27510,-11125,-7060,4083,7118,2002,1647
27520,-11477,-6355,4290,7968,1378,1605
27530,-12163,-5050,3790,8816,557,1929
27540,-12860,-4156,3363,8409,219,1904
27550,-12493,-3391,3229,7356,-155,1948
27560,-11953,-2400,3223,6162,-849,1688
27570,-10574,-613,4007,3947,-2057,539
27580,-10103,687,4634,3534,-2838,54
27590,-7114,1399,3498,3533,-3924,-396
27600,-8232,1246,4215,564,-1028,-1366
27610,-8183,845,4405,-336,-22,-1351
27620,-9256,-910,4331,-1634,-84,-1804
27630,-9297,-2163,4740,-2326,-462,-1596
27640,-9652,-3240,5377,-2798,-523,-1434
27650,-10571,-4793,7322,-2953,377,-1683
27660,-11806,-5354,9128,-2787,768,-1674
27670,-12895,-5524,10765,-2219,803,-1313
27680,-14386,-6461,13355,-1257,639,-1176
27690,-17455,-8367,14121,2422,-383,-1684
27700,-18961,-9591,11828,4140,-1051,-2340
27710,-21928,-11006,8336,3863,-1389,-2647
27720,-23485,-11059,7780,98,-127,-409
27730,-21549,-8801,11279,179,1304,324
27740,-16264,-7727,13740,1649,730,535
27750,-12915,-10523,17123,2546,528,754
27760,-12928,-11455,17203,3207,-1116,392
27770,-13371,-11764,16854,4538,-2537,-141
27780,-15571,-12271,17119,6016,-3440,-869
27790,-19865,-8366,11388,8834,-5142,-1835
27800,-19255,-4707,4327,8441,-6416,-1945
27810,-17913,-1545,-110,6225,-5474,-1439
27820,-20599,2040,-2618,1339,600,489
27830,-20736,3247,-3933,-625,1744,1241
27840,-17488,-3199,5117,493,2524,2475
27850,-17294,-5529,5635,2287,1391,2114
27860,-16413,-7931,5606,3364,678,1117
27870,-15875,-8625,4021,3435,-88,-611
27880,-12856,-8044,-2839,-2485,1726,-2157
27890,-13642,-8691,-2559,-6478,6418,-1785
27900,-15427,-8336,-1552,-7926,8971,-1703
27910,-15860,-5395,1451,-5050,2762,-2537
27920,-15791,-3948,2355,-2827,-467,-3138
27930,-15039,-2956,2996,-1478,-2019,-3512
27940,-14989,-2567,4063,-1128,-2129,-3943
27950,-13612,-1097,5492,-989,-778,-3333
27960,-12846,-477,4513,-912,-973,-2720
27970,-12685,-333,3651,-1615,-1466,-2612
27980,-12159,-2382,3542,-4214,-1633,-2134
27990,-11958,-3295,3596,-4934,-1673,-1648
28000,-11741,-4722,3729,-5281,-1896,-1408
28010,-11250,-6281,3843,-5401,-2069,-1552
28020,-12428,-8098,3658,-5229,-824,-1609
28030,-11407,-8753,3686,-4646,-929,-1306
28040,-11432,-8791,3466,-3797,-1231,-1592
28050,-11553,-8708,4622,-3313,-1665,-1133
28060,-11187,-8978,5796,-3098,-1884,-666
28070,-10916,-8435,6585,-1870,-1916,338
28080,-11199,-7904,6961,-1523,-2279,1806
28090,-11028,-7230,6650,-1339,-2167,2065
28100,-11499,-6694,6357,-1446,-1779,2161
28110,-11114,-6332,5971,-1524,-1399,2452
28120,-10686,-5152,5329,-1127,418,2890
28130,-10869,-5176,5768,-1039,875,3187
28140,-10963,-5707,6244,-852,477,3500
28150,-11927,-8164,6574,-775,-1051,4259
28160,-13170,-9851,6722,-1385,-732,4592
28170,-15145,-11146,7236,-2048,270,4418
28180,-16988,-10577,7000,-1109,707,2398
28190,-17343,-10299,7069,-595,469,1605
28200,-17681,-10314,7414,-617,158,906
28210,-17516,-11124,8135,-974,-415,197
28220,-15627,-11916,9796,-1313,243,-616
28230,-16178,-11596,10458,-1225,584,-919
28240,-16466,-10869,10606,-996,11,-1178
28250,-18723,-9734,9798,-1720,-2100,-1638
28260,-20370,-9770,9170,-2203,-3302,-1936
28270,-21860,-9275,8682,-2410,-4171,-2726
28280,-20644,-7939,5806,-1675,-5798,-3378
28290,-18866,-6782,3364,-782,-6410,-3432
28300,-16202,-5801,1694,-33,-6338,-3621
28310,-14932,-5271,2084,1303,-2964,-3515
28320,-13951,-4196,1896,2762,-2648,-3579
28330,-13938,-3336,1712,4083,-2382,-3738
28340,-17538,-3834,955,5932,99,-3400
28350,-19557,-4585,750,6001,1633,-2902
28360,-20896,-4918,1198,5458,2643,-2456
28370,-21174,-4076,2685,4738,3633,-1949
28380,-20662,-3673,4032,2599,4856,-442
28390,-19601,-3301,5778,1699,3789,195
28400,-18057,-3207,7012,1059,1238,477
28410,-14964,-3486,8726,253,-1760,993
28420,-14046,-3757,8944,223,-572,1502
28430,-13351,-3968,8032,693,595,1710
28440,-11961,-4557,5330,1216,1369,1689
28450,-11364,-5410,4497,2339,3607,1188
28460,-10921,-6065,4808,2910,3834,1218
28470,-10367,-6454,3963,4567,2437,1157
28480,-12380,-6248,2800,6227,1556,1718
28490,-12529,-5861,3396,6302,1693,2509
28500,-13044,-4806,3731,6880,993,2635
28510,-12687,-3990,3199,8132,100,2356
28520,-12489,-2797,2849,7993,-867,2152
28530,-11692,-1903,3017,7124,-1560,2130
28540,-9897,-847,4156,4957,-2643,1542
28550,-9352,-133,4729,4309,-2970,1006
28560,-8222,765,4869,4054,-3461,542
28570,-9147,-73,4313,2627,-1599,-1212
28580,-9333,-824,4833,1395,434,-1231
28590,-9327,-886,4452,760,881,-1462
28600,-8853,-1099,5044,-996,-227,-2054
28610,-8786,-1547,5185,-1627,-664,-2222
28620,-8907,-2547,5654,-2088,-755,-2227
28630,-9897,-3379,6554,-2289,82,-2095
28640,-11750,-4944,9831,-2190,1366,-1903
28650,-13139,-5797,11346,-1423,1275,-2132
28660,-14606,-6989,13244,-229,831,-2385
28670,-18559,-8955,13329,3016,602,-2545
28680,-21755,-9190,8893,3110,-197,-2578
28690,-23503,-8648,4679,973,-1593,-1749
28700,-25252,-7289,4816,-1700,-599,-469
28710,-21290,-4821,12060,-781,2146,1912
28720,-18255,-6860,17676,925,1577,1493
28730,-20165,-12559,17697,8903,-7136,-926
28740,-20826,-9912,11667,11974,-7136,-751
28750,-17614,-3734,1768,12450,-7215,-107
28760,-19890,137,-3043,2728,-423,633
28770,-21413,1807,-4753,699,3285,1744
28780,-21320,3933,-6928,-664,4708,2471
28790,-18324,3614,-1922,-3962,4773,3263
28800,-17984,1563,1711,-2311,2597,2633
28810,-17514,-1291,4647,485,165,2093
28820,-17262,-6301,5849,3019,-1279,1276
28830,-16842,-7905,4996,3604,-1488,210
28840,-15021,-7591,1708,1243,-616,-801
28850,-13721,-7147,-2076,-2788,1908,-1326
28860,-13682,-7875,-3027,-9335,10648,-1515
28870,-15838,-7087,-2780,-8868,11634,-2023
28880,-16116,-6817,-1005,-7490,8414,-2145
28890,-16465,-4737,1515,-1929,753,-2924
28900,-17786,-3507,1925,7,-1094,-3141
28910,-16381,-2492,2832,446,-2080,-2914
28920,-15608,-1752,4251,-9,-2139,-3233
28930,-13417,-1061,5915,-305,-2400,-3816
28940,-11523,-1214,4931,-270,-2778,-3360
28950,-11026,-2164,4940,-1897,-2614,-3132
28960,-11199,-2872,3869,-2116,-2325,-2723
28970,-12035,-3593,2901,-2391,-1749,-2525
28980,-12278,-5780,1819,-3338,-764,-2365
28990,-12375,-6784,1747,-3345,-285,-2651
29000,-11773,-7760,1942,-2994,-28,-2855
29010,-13101,-7802,2378,-2597,37,-2986
29020,-11854,-7503,3717,-2104,-2370,-1809
29030,-11717,-7071,4394,-1715,-2804,-1537
29040,-11366,-7025,4823,-1406,-2838,-1081
29050,-12127,-6574,5800,-1178,-2423,594
29060,-12234,-6179,6135,-1297,-2501,1389
29070,-12501,-5432,5951,-1449,-2677,1895
29080,-11729,-4822,5910,-2407,-1696,2750
29090,-11390,-4711,6005,-2535,-762,2861
29100,-11473,-4412,5680,-2191,200,3026
29110,-11374,-4598,5305,-1895,356,3192
29120,-11801,-5755,5679,-2051,-1159,3550
29130,-11738,-7239,5781,-2178,-2366,4117
29140,-11926,-8762,5745,-2267,-2909,4534
29150,-13499,-9911,5552,-2280,-2283,4212
29160,-15398,-10871,4714,-1596,-29,2819
29170,-15655,-10172,4542,-1501,1002,2323
29180,-16539,-9124,8308,-2639,2806,1190
29190,-17170,-9563,9564,-2640,3184,585
29200,-17204,-10260,10074,-2402,2820,132
29210,-16903,-10574,10827,-2256,1881,-289
29220,-16888,-8991,10930,-1041,-641,-846
29230,-17213,-8651,10406,-810,-1695,-764
29240,-17718,-8854,9640,-1436,-2489,-614
29250,-20811,-9665,8731,-3872,-3583,-943
29260,-23288,-8620,9355,-4477,-4362,-1798
29270,-22711,-7655,8165,-3586,-5901,-2100
29280,-21229,-7626,5699,-2158,-7303,-2443
29290,-17489,-8396,449,-180,-7081,-3597
29300,-15726,-8443,-149,514,-5640,-3999
29310,-15192,-7656,521,1427,-4032,-4331
29320,-14391,-4258,1073,4188,-3250,-4022
29330,-15420,-3610,1134,5273,-2367,-3614
29340,-17338,-3599,621,6097,-577,-3171
29350,-19986,-3525,344,6400,1848,-1796
29360,-20045,-3725,1172,5288,5952,-1336
29370,-19293,-4190,2299,4638,6991,-905
29380,-18486,-4041,3383,4280,6561,-575
29390,-16682,-3585,5696,2866,1310,-332
29400,-16158,-3833,7280,1916,-1177,-199
29410,-14896,-4417,8142,1736,-2393,520
29420,-14193,-5177,8147,2062,-1490,612
29430,-14091,-5749,7657,2690,155,571
29440,-13125,-5951,6288,3768,1817,740
29450,-12799,-6388,5251,5116,2711,127
29460,-12149,-6179,4712,5999,1628,214
29470,-12609,-5751,4067,6835,457,527
29480,-12359,-4949,4142,6904,1026,1424
29490,-12256,-4853,4132,7193,1409,1596
29500,-12096,-4466,3922,7402,1245,1806
29510,-11769,-3842,3663,7422,618,1861
29520,-10757,-2507,3056,6779,-409,1966
29530,-10784,-1588,3153,6365,-491,1992
29540,-9866,-1072,2683,5860,-904,1793
29550,-8501,-1020,2709,5347,-2065,323
29560,-10189,-1274,2122,4979,-848,-496
29570,-9930,-1292,2346,4406,243,-438
