timestamp, ax, ay, az, gx, gy, gz
0, -15438, -509, 7008, -212, 4309, -725
10, -15479, -500, 6827, -213, 4153, -664
20, -15460, -547, 6513, -179, 3540, -668
30, -15320, -488, 6554, -199, 3177, -608
40, -15088, -363, 6594, -294, 2667, -592
50, -14970, -263, 6804, -457, 1481, -883
60, -15059, -355, 6986, -484, 1290, -1007
70, -15188, -431, 7047, -506, 1408, -1120
80, -15313, -695, 6902, -387, 1968, -1055
90, -15401, -790, 6804, -302, 2103, -987
100, -15477, -753, 6750, -233, 2118, -881
110, -15117, -507, 6627, -155, 1956, -645
120, -15253, -622, 6654, -324, 2721, -994
130, -15600, -814, 6512, -215, 3525, -956
140, -15761, -854, 6332, -91, 3958, -825
150, -15839, -907, 6124, 24, 4456, -693
160, -15790, -1005, 5542, 168, 5152, -648
170, -15761, -976, 5292, 229, 5541, -636
180, -15741, -922, 5054, 277, 5711, -599
190, -15760, -654, 4676, 220, 5436, -582
200, -15913, -582, 4548, 184, 5290, -607
210, -15968, -620, 4428, 75, 5302, -606
220, -16154, -698, 4374, -46, 5351, -692
230, -16100, -894, 4105, 84, 5277, -701
240, -16143, -884, 3877, 225, 5109, -659
250, -16118, -797, 3548, 330, 4767, -544
260, -16142, -758, 3498, 308, 4557, -541
270, -16253, -751, 3428, 313, 4333, -567
280, -16426, -852, 3230, 329, 4097, -634
290, -16345, -835, 3164, 341, 4080, -563
300, -16260, -948, 3054, 411, 3943, -544
310, -16347, -1042, 2876, 518, 3821, -626
320, -16465, -1110, 2569, 659, 3813, -612
330, -16481, -1083, 2499, 660, 3679, -576
340, -16436, -1020, 2435, 671, 3415, -563
350, -16608, -947, 2350, 711, 2626, -585
360, -16568, -954, 2312, 751, 2195, -560
370, -16445, -987, 2221, 778, 1783, -519
380, -16313, -1009, 2201, 755, 1449, -505
390, -16106, -910, 2384, 677, 881, -478
400, -16271, -992, 2345, 665, 737, -593
410, -16524, -965, 2254, 671, 761, -723
420, -16344, -1069, 2179, 534, 938, -513
430, -16347, -1105, 2108, 517, 967, -571
440, -16394, -1152, 2052, 523, 983, -626
450, -16499, -1225, 2030, 529, 953, -704
460, -16650, -1233, 1930, 579, 738, -741
470, -16522, -1232, 1931, 543, 630, -674
480, -16426, -1161, 1947, 560, 444, -659
490, -16323, -953, 1898, 534, 204, -653
500, -16298, -943, 1883, 529, 193, -691
510, -16341, -1042, 1836, 493, 249, -718
520, -16489, -1248, 1764, 488, 315, -698
530, -16483, -1340, 1676, 488, 355, -627
540, -16406, -1462, 1653, 477, 401, -567
550, -16362, -1327, 1622, 519, 280, -470
560, -16379, -1410, 1666, 522, 107, -502
570, -16567, -1365, 1593, 552, 140, -562
580, -16406, -1158, 1523, 532, 238, -496
590, -16381, -1157, 1479, 497, 86, -456
600, -16369, -1140, 1459, 449, -8, -474
610, -16441, -1153, 1572, 373, -132, -490
620, -16402, -1098, 1607, 288, -191, -372
630, -16397, -1118, 1669, 241, -124, -363
640, -16429, -1134, 1631, 238, -64, -357
650, -16467, -1081, 1495, 258, 9, -345
660, -16444, -1064, 1417, 281, -44, -347
670, -16443, -1072, 1455, 257, -87, -345
680, -16480, -1126, 1469, 234, -129, -326
690, -16483, -1188, 1441, 223, -144, -278
700, -16464, -1184, 1453, 235, -133, -263
710, -16452, -1196, 1428, 236, -124, -257
720, -16351, -1191, 1365, 244, -179, -287
730, -16435, -1170, 1445, 274, -254, -387
740, -16588, -1108, 1549, 334, -429, -417
750, -16537, -1033, 1588, 346, -474, -402
760, -16472, -987, 1606, 390, -507, -381
770, -16345, -929, 1619, 437, -566, -349
780, -16321, -955, 1715, 429, -555, -348
790, -16392, -987, 1758, 475, -536, -364
800, -16422, -1045, 1744, 490, -452, -356
810, -16400, -1123, 1685, 538, -243, -315
820, -16366, -1164, 1610, 554, -189, -307
830, -16363, -1228, 1524, 559, -151, -312
840, -16415, -1307, 1429, 493, -190, -328
850, -16406, -1331, 1431, 453, -240, -327
860, -16418, -1343, 1428, 447, -319, -315
870, -16411, -1302, 1511, 428, -364, -295
880, -16314, -1283, 1557, 470, -415, -262
890, -16356, -1290, 1552, 481, -297, -283
900, -16403, -1299, 1502, 509, -181, -321
910, -16389, -1356, 1467, 521, -125, -341
920, -16419, -1524, 1398, 554, -125, -396
930, -16411, -1544, 1382, 556, -128, -386
940, -16448, -1524, 1326, 554, -148, -376
950, -16413, -1383, 1291, 536, -232, -367
960, -16391, -1337, 1305, 529, -295, -363
970, -16398, -1285, 1332, 524, -349, -371
980, -16413, -1308, 1411, 538, -439, -388
990, -16435, -1338, 1367, 521, -376, -366
1000, -16458, -1335, 1362, 523, -388, -349
1010, -16467, -1226, 1349, 520, -471, -323
1020, -16495, -1241, 1357, 515, -528, -337
1030, -16494, -1226, 1367, 515, -572, -330
1040, -16463, -1151, 1323, 483, -681, -317
1050, -16513, -1128, 1306, 454, -737, -327
1060, -16478, -1101, 1312, 462, -830, -346
1070, -16441, -1098, 1317, 440, -898, -356
1080, -16439, -1091, 1383, 432, -1012, -402
1090, -16411, -1071, 1414, 411, -1046, -414
1100, -16398, -1058, 1497, 422, -1067, -436
1110, -16412, -1075, 1508, 412, -1060, -438
1120, -16405, -1043, 1554, 416, -1018, -433
1130, -16384, -1029, 1546, 370, -980, -406
1140, -16395, -1039, 1537, 354, -952, -397
1150, -16411, -1052, 1541, 298, -948, -382
1160, -16415, -1072, 1546, 271, -960, -380
1170, -16409, -1100, 1556, 239, -971, -386
1180, -16418, -1196, 1570, 249, -994, -396
1190, -16362, -1239, 1583, 260, -1082, -432
1200, -16348, -1279, 1595, 253, -1102, -436
1210, -16355, -1308, 1623, 275, -1088, -447
1220, -16371, -1343, 1706, 292, -1132, -430
1230, -16371, -1365, 1758, 313, -1085, -432
1240, -16351, -1367, 1754, 342, -933, -415
1250, -16343, -1383, 1742, 349, -903, -412
1260, -16333, -1425, 1733, 357, -871, -416
1270, -16333, -1457, 1730, 388, -923, -377
1280, -16353, -1452, 1810, 352, -921, -350
1290, -16383, -1415, 1881, 367, -945, -350
1300, -16401, -1398, 1948, 383, -931, -361
1310, -16302, -1443, 1958, 433, -746, -326
1320, -16273, -1453, 1899, 467, -629, -304
1330, -16325, -1453, 1896, 475, -572, -289
1340, -16413, -1355, 1902, 439, -541, -266
1350, -16455, -1332, 1905, 433, -553, -256
1360, -16438, -1337, 1921, 446, -575, -277
1370, -16385, -1338, 1950, 466, -608, -270
1380, -16361, -1361, 1958, 475, -586, -255
1390, -16370, -1334, 1926, 480, -545, -248
1400, -16381, -1331, 1886, 480, -502, -236
1410, -16385, -1278, 1864, 530, -477, -237
1420, -16407, -1245, 1845, 499, -470, -227
1430, -16420, -1246, 1851, 505, -481, -223
1440, -16407, -1194, 1850, 508, -511, -226
1450, -16404, -1181, 1854, 491, -502, -220
1460, -16393, -1158, 1855, 500, -513, -232
1470, -16372, -1146, 1880, 470, -537, -232
1480, -16384, -1141, 1879, 439, -499, -227
1490, -16364, -1182, 1865, 434, -449, -228
1500, -16370, -1242, 1785, 432, -386, -229
1510, -16365, -1263, 1745, 443, -409, -235
1520, -16358, -1258, 1750, 444, -465, -236
1530, -16385, -1209, 1874, 382, -536, -249
1540, -16367, -1206, 1912, 362, -567, -281
1550, -16395, -1177, 1927, 343, -536, -283
1560, -16349, -1134, 1919, 324, -515, -288
1570, -16362, -1144, 1904, 332, -531, -348
1580, -16370, -1132, 1920, 327, -533, -357
1590, -16378, -1151, 1938, 323, -544, -367
1600, -16404, -1122, 1991, 327, -603, -380
1610, -16396, -1097, 2012, 303, -589, -380
1620, -16388, -1128, 1981, 301, -554, -377
1630, -16370, -1128, 1971, 295, -460, -366
1640, -16377, -1110, 1929, 312, -444, -347
1650, -16401, -1134, 1894, 302, -445, -345
1660, -16404, -1123, 1893, 298, -460, -340
1670, -16412, -1205, 1843, 267, -508, -342
1680, -16408, -1237, 1834, 271, -513, -334
1690, -16396, -1266, 1834, 268, -526, -329
1700, -16384, -1321, 1832, 291, -573, -347
1710, -16378, -1349, 1849, 288, -608, -341
1720, -16360, -1368, 1889, 317, -622, -342
1730, -16392, -1371, 1900, 295, -588, -321
1740, -16392, -1366, 1902, 307, -587, -321
1750, -16374, -1373, 1917, 323, -595, -309
1760, -16392, -1359, 1935, 324, -577, -299
1770, -16362, -1366, 1957, 302, -578, -282
1780, -16355, -1371, 1986, 319, -592, -301
1790, -16365, -1353, 1998, 319, -598, -306
1800, -16399, -1320, 2050, 340, -567, -308
1810, -16371, -1315, 2037, 356, -551, -315
1820, -16389, -1269, 2039, 352, -534, -303
1830, -16384, -1242, 2032, 340, -517, -267
1840, -16379, -1238, 2023, 386, -529, -287
1850, -16361, -1243, 2014, 381, -530, -291
1860, -16409, -1198, 1998, 378, -523, -294
1870, -16395, -1171, 1964, 371, -515, -277
1880, -16367, -1162, 1972, 353, -515, -278
1890, -16365, -1169, 2005, 354, -526, -273
1900, -16355, -1180, 2011, 355, -508, -293
1910, -16384, -1185, 1992, 367, -493, -312
1920, -16408, -1172, 1961, 364, -473, -302
1930, -16413, -1180, 1950, 372, -488, -322
1940, -16298, -1190, 1916, 337, -463, -302
1950, -16275, -1214, 1889, 338, -446, -287
1960, -16339, -1218, 1905, 328, -479, -296
1970, -16423, -1202, 2019, 312, -573, -320
1980, -16416, -1180, 2072, 286, -565, -314
1990, -16411, -1178, 2081, 310, -550, -333
2000, -16350, -1269, 2039, 322, -515, -318
2010, -16342, -1298, 2044, 346, -540, -324
2020, -16350, -1322, 2034, 364, -529, -313
2030, -16342, -1332, 2015, 346, -510, -300
2040, -16374, -1345, 2042, 350, -499, -299
2050, -16371, -1338, 2024, 332, -481, -295
2060, -16381, -1316, 2043, 345, -482, -291
2070, -16403, -1293, 2025, 343, -484, -312
2080, -16408, -1276, 2014, 338, -486, -319
2090, -16389, -1264, 2002, 338, -497, -315
2100, -16352, -1256, 2002, 341, -482, -313
2110, -16326, -1221, 2037, 358, -496, -300
2120, -16318, -1216, 2067, 361, -505, -299
2130, -16337, -1203, 2073, 353, -452, -293
2140, -16403, -1165, 2011, 359, -382, -312
2150, -16410, -1192, 1958, 353, -364, -306
2160, -16383, -1207, 1958, 366, -394, -312
2170, -16369, -1211, 2013, 359, -461, -316
2180, -16378, -1176, 2019, 357, -465, -310
2190, -16371, -1148, 2032, 354, -451, -309
2200, -16363, -1156, 2047, 346, -464, -312
2210, -16336, -1171, 2061, 337, -462, -303
2220, -16329, -1191, 2087, 351, -465, -320
2230, -16407, -1218, 2049, 371, -433, -344
2240, -16427, -1243, 2010, 341, -411, -325
2250, -16413, -1259, 1988, 350, -426, -329
2260, -16406, -1257, 1989, 346, -452, -330
2270, -16363, -1281, 2016, 351, -470, -315
2280, -16338, -1263, 2012, 346, -432, -307
2290, -16355, -1265, 1987, 359, -426, -312
2300, -16381, -1248, 1976, 351, -433, -314
2310, -16389, -1249, 1986, 370, -467, -329
2320, -16385, -1243, 1998, 361, -451, -317
2330, -16380, -1238, 2007, 322, -457, -313
2340, -16370, -1240, 2004, 336, -474, -315
2350, -16371, -1233, 2029, 324, -460, -313
2360, -16359, -1255, 2059, 355, -443, -323
2370, -16373, -1244, 2043, 344, -404, -305
2380, -16402, -1251, 2023, 349, -401, -301
2390, -16403, -1242, 2009, 360, -406, -313
2400, -16372, -1219, 2011, 353, -442, -319
2410, -16364, -1210, 2000, 382, -424, -323
2420, -16338, -1206, 1998, 385, -398, -303
2430, -16323, -1213, 2001, 386, -388, -291
2440, -16286, -1210, 2028, 408, -381, -285
2450, -16309, -1185, 2069, 421, -283, -289
2460, -16363, -1177, 2052, 432, -232, -301
2470, -16396, -1150, 1994, 448, -179, -306
2480, -16416, -1162, 1896, 422, -204, -288
2490, -16408, -1180, 1860, 407, -245, -301
2500, -16393, -1179, 1796, 425, -224, -303
2510, -16378, -1159, 1706, 419, -211, -299
2520, -16358, -1147, 1677, 384, -350, -305
2530, -16285, -1131, 1749, 395, -452, -314
2540, -16309, -1127, 1851, 380, -484, -298
2550, -16332, -1119, 1970, 405, -368, -265
2560, -16360, -1139, 1999, 435, -295, -246
2570, -16393, -1161, 2013, 443, -261, -230
2580, -16412, -1210, 2022, 435, -250, -215
2590, -16407, -1282, 2050, 402, -236, -162
2600, -16394, -1290, 2078, 395, -202, -138
2610, -16406, -1312, 2099, 379, -179, -130
2620, -16421, -1336, 2099, 377, -173, -160
2630, -16448, -1286, 2049, 378, -152, -220
2640, -16432, -1271, 2027, 384, -190, -246
2650, -16423, -1240, 2031, 355, -225, -261
2660, -16425, -1212, 2051, 364, -214, -267
2670, -16408, -1164, 2021, 333, -176, -249
2680, -16339, -1232, 1849, 349, -66, -250
2690, -16387, -1249, 1808, 337, -93, -266
2700, -16419, -1252, 1822, 320, -156, -257
2710, -16445, -1183, 1880, 333, -208, -260
2720, -16413, -1159, 1873, 328, -163, -236
2730, -16401, -1146, 1829, 327, -110, -217
2740, -16390, -1149, 1796, 324, -94, -213
2750, -16331, -1223, 1779, 336, -65, -207
2760, -16375, -1275, 1705, 363, 36, -232
2770, -16399, -1321, 1683, 361, 70, -233
2780, -16399, -1325, 1658, 357, 108, -226
2790, -16404, -1262, 1617, 344, 88, -206
2800, -16438, -1167, 1600, 321, 69, -211
2810, -16422, -1119, 1567, 324, 39, -245
2820, -16401, -1080, 1552, 308, 24, -253
2830, -16433, -1033, 1468, 325, -109, -315
2840, -16411, -1031, 1460, 311, -228, -298
2850, -16306, -1080, 1522, 354, -395, -311
2860, -16353, -1018, 1739, 365, -431, -336
2870, -16388, -999, 1774, 361, -321, -328
2880, -16451, -1031, 1630, 376, -111, -354
2890, -16401, -1120, 1615, 368, -513, -370
2900, -16399, -1096, 1667, 388, -475, -357
2910, -16359, -1079, 1680, 403, -403, -335
2920, -16402, -1115, 1612, 410, -267, -338
2930, -16459, -1053, 1533, 437, -242, -375
2940, -16477, -1043, 1543, 384, -258, -382
2950, -16516, -1120, 1520, 354, -242, -384
2960, -16493, -1135, 1504, 360, -235, -371
2970, -16457, -1139, 1509, 342, -272, -350
2980, -16388, -1170, 1480, 341, -366, -301
2990, -16380, -1272, 1532, 320, -369, -271
3000, -16392, -1299, 1529, 337, -403, -250
3010, -16423, -1352, 1584, 331, -405, -218
3020, -16460, -1336, 1596, 343, -386, -204
3030, -16500, -1281, 1599, 359, -363, -219
3040, -16463, -1258, 1564, 362, -345, -217
3050, -16410, -1281, 1579, 380, -432, -237
3060, -16379, -1272, 1606, 377, -463, -216
3070, -16382, -1251, 1641, 371, -471, -193
3080, -16402, -1198, 1602, 406, -427, -164
3090, -16377, -1176, 1593, 400, -399, -155
3100, -16404, -1169, 1585, 403, -369, -172
3110, -16402, -1112, 1584, 403, -333, -183
3120, -16411, -1033, 1523, 408, -217, -182
3130, -16408, -984, 1498, 397, -153, -188
3140, -16417, -1023, 1436, 450, -85, -190
3150, -16420, -1035, 1439, 422, -105, -170
3160, -16418, -1041, 1454, 431, -172, -177
3170, -16437, -1029, 1486, 424, -214, -165
3180, -16421, -1055, 1499, 396, -206, -152
3190, -16441, -1072, 1473, 427, -218, -162
3200, -16454, -1050, 1472, 422, -221, -179
3210, -16443, -1071, 1471, 442, -260, -195
3220, -16447, -1106, 1491, 447, -279, -190
3230, -16451, -1120, 1527, 462, -286, -167
3240, -16409, -1122, 1482, 478, -248, -128
3250, -16420, -1154, 1478, 472, -225, -113
3260, -16464, -1147, 1435, 467, -219, -96
3270, -16472, -1138, 1399, 454, -241, -93
3280, -16467, -1154, 1391, 461, -346, -118
3290, -16465, -1125, 1361, 482, -370, -123
3300, -16458, -1089, 1368, 475, -380, -125
3310, -16447, -1074, 1336, 447, -409, -143
3320, -16430, -1059, 1340, 424, -416, -120
3330, -16400, -1017, 1359, 434, -444, -106
3340, -16430, -986, 1334, 441, -449, -137
3350, -16436, -945, 1335, 432, -464, -149
3360, -16459, -909, 1349, 419, -478, -144
3370, -16464, -837, 1369, 387, -533, -172
3380, -16450, -813, 1400, 371, -570, -187
3390, -16436, -787, 1435, 346, -559, -203
3400, -16343, -878, 1329, 324, -502, -232
3410, -16377, -896, 1335, 323, -515, -251
3420, -16380, -867, 1425, 296, -561, -262
3430, -16434, -878, 1507, 286, -553, -273
3440, -16465, -861, 1493, 292, -493, -254
3450, -16434, -884, 1457, 301, -483, -249
3460, -16437, -925, 1443, 306, -472, -257
3470, -16379, -935, 1431, 318, -520, -246
3480, -16401, -961, 1428, 316, -516, -271
3490, -16431, -1012, 1434, 309, -483, -266
3500, -16492, -1020, 1437, 320, -487, -251
3510, -16467, -1046, 1425, 307, -484, -241
3520, -16460, -1037, 1439, 316, -505, -254
3530, -16427, -1043, 1437, 306, -521, -258
3540, -16421, -1047, 1453, 324, -544, -284
3550, -16418, -1044, 1457, 335, -525, -288
3560, -16404, -1017, 1508, 362, -535, -308
3570, -16397, -948, 1495, 338, -477, -303
3580, -16408, -933, 1463, 359, -432, -328
3590, -16431, -942, 1430, 349, -381, -327
3600, -16459, -945, 1353, 373, -367, -343
3610, -16422, -971, 1333, 385, -423, -344
3620, -16418, -970, 1355, 401, -491, -350
3630, -16420, -975, 1410, 394, -532, -350
3640, -16424, -955, 1429, 374, -509, -333
3650, -16435, -921, 1433, 394, -512, -341
3660, -16447, -940, 1441, 415, -554, -345
3670, -16435, -945, 1461, 400, -582, -346
3680, -16416, -940, 1443, 390, -580, -338
3690, -16432, -952, 1456, 393, -562, -323
3700, -16464, -955, 1430, 377, -575, -328
3710, -16469, -950, 1443, 362, -610, -329
3720, -16458, -943, 1451, 350, -611, -309
3730, -16412, -935, 1458, 362, -629, -321
3740, -16424, -955, 1444, 342, -618, -304
3750, -16446, -951, 1456, 325, -617, -287
3760, -16419, -959, 1468, 331, -608, -293
3770, -16434, -974, 1505, 329, -629, -290
3780, -16442, -958, 1490, 331, -650, -301
3790, -16425, -958, 1503, 321, -635, -277
3800, -16424, -945, 1557, 321, -610, -297
3810, -16410, -935, 1554, 314, -601, -296
3820, -16421, -931, 1554, 321, -593, -310
3830, -16416, -937, 1549, 334, -574, -304
3840, -16412, -930, 1563, 347, -595, -321
3850, -16424, -936, 1560, 327, -578, -318
3860, -16419, -971, 1540, 325, -523, -318
3870, -16419, -965, 1533, 317, -516, -312
3880, -16425, -970, 1538, 327, -513, -291
3890, -16413, -964, 1536, 324, -524, -283
3900, -16411, -960, 1554, 356, -543, -313
3910, -16419, -971, 1530, 343, -522, -309
3920, -16441, -958, 1530, 356, -530, -302
3930, -16427, -965, 1524, 368, -563, -306
3940, -16439, -951, 1541, 360, -582, -313
3950, -16434, -951, 1569, 364, -586, -319
3960, -16427, -944, 1584, 364, -584, -314
3970, -16417, -925, 1584, 360, -558, -305
3980, -16412, -923, 1602, 363, -564, -305
3990, -16416, -929, 1606, 350, -549, -294
4000, -16400, -921, 1624, 344, -539, -290
4010, -16418, -924, 1621, 353, -517, -294
4020, -16450, -926, 1596, 363, -506, -299
4030, -16455, -920, 1575, 355, -499, -310
4040, -16432, -926, 1576, 358, -511, -302
4050, -16422, -906, 1592, 343, -543, -301
4060, -16384, -914, 1616, 338, -561, -288
4070, -16425, -967, 1626, 341, -578, -297
4080, -16459, -963, 1602, 355, -568, -292
4090, -16494, -959, 1586, 370, -565, -301
4100, -16483, -924, 1591, 368, -572, -302
4110, -16443, -912, 1606, 365, -586, -306
4120, -16328, -896, 1549, 359, -578, -301
4130, -16333, -955, 1557, 312, -530, -289
4140, -16396, -965, 1610, 316, -566, -304
4150, -16413, -950, 1637, 317, -602, -317
4160, -16466, -884, 1703, 303, -541, -292
4170, -16450, -865, 1682, 331, -542, -300
4180, -16425, -873, 1682, 321, -555, -302
4190, -16395, -911, 1674, 323, -560, -294
4200, -16403, -934, 1657, 331, -559, -280
4210, -16378, -963, 1687, 323, -542, -284
4220, -16408, -983, 1667, 340, -527, -286
4230, -16414, -957, 1698, 323, -481, -301
4240, -16415, -953, 1679, 321, -446, -307
4250, -16420, -949, 1630, 334, -419, -302
4260, -16403, -933, 1622, 332, -414, -309
4270, -16405, -942, 1626, 324, -439, -319
4280, -16395, -942, 1660, 324, -461, -324
4290, -16406, -915, 1707, 313, -408, -326
4300, -16404, -909, 1700, 336, -399, -327
4310, -16398, -921, 1645, 328, -359, -320
4320, -16446, -931, 1579, 341, -329, -328
4330, -16431, -932, 1552, 342, -339, -319
4340, -16444, -946, 1543, 358, -396, -346
4350, -16428, -944, 1625, 352, -491, -336
4360, -16456, -934, 1643, 357, -486, -340
4370, -16438, -910, 1630, 341, -471, -335
4380, -16426, -915, 1610, 343, -493, -323
4390, -16405, -900, 1646, 317, -507, -307
4400, -16399, -894, 1678, 321, -534, -317
4410, -16418, -902, 1715, 324, -541, -328
4420, -16440, -900, 1727, 348, -452, -339
4430, -16454, -925, 1680, 352, -429, -349
4440, -16460, -953, 1611, 349, -432, -336
4450, -16448, -950, 1601, 362, -468, -350
4460, -16409, -946, 1650, 351, -521, -323
4470, -16409, -935, 1651, 345, -536, -333
4480, -16418, -935, 1674, 332, -505, -327
4490, -16430, -953, 1616, 352, -455, -339
4500, -16432, -948, 1623, 335, -455, -332
4510, -16440, -933, 1636, 344, -465, -326
4520, -16416, -946, 1629, 331, -474, -315
4530, -16405, -945, 1657, 345, -479, -315
4540, -16423, -956, 1685, 361, -478, -316
4550, -16418, -943, 1674, 334, -437, -286
4560, -16411, -949, 1673, 354, -440, -307
4570, -16413, -931, 1672, 354, -427, -306
4580, -16431, -957, 1631, 363, -452, -311
4590, -16424, -950, 1630, 370, -471, -301
4600, -16441, -947, 1636, 366, -477, -304
4610, -16438, -932, 1639, 375, -519, -310
4620, -16419, -923, 1651, 363, -506, -302
4630, -16409, -913, 1642, 359, -491, -301
4640, -16403, -895, 1656, 362, -477, -296
4650, -16394, -896, 1671, 368, -464, -285
4660, -16423, -899, 1698, 372, -462, -298
4670, -16437, -907, 1654, 356, -426, -307
4680, -16445, -906, 1655, 343, -430, -308
4690, -16441, -916, 1685, 358, -457, -301
4700, -16416, -922, 1714, 359, -466, -311
4710, -16414, -921, 1726, 356, -426, -299
4720, -16413, -921, 1700, 360, -402, -297
4730, -16413, -933, 1703, 367, -404, -317
4740, -16408, -946, 1642, 363, -424, -311
4750, -16453, -955, 1623, 354, -448, -306
4760, -16466, -933, 1597, 348, -451, -298
4770, -16427, -931, 1614, 343, -480, -308
4780, -16405, -919, 1648, 337, -503, -311
4790, -16404, -962, 1670, 337, -495, -305
4800, -16412, -936, 1659, 358, -448, -309
4810, -16456, -930, 1625, 370, -446, -328
4820, -16478, -944, 1600, 364, -448, -337
4830, -16350, -899, 1561, 336, -525, -317
4840, -16326, -921, 1590, 307, -556, -319
4850, -16417, -869, 1772, 327, -603, -332
4860, -16443, -845, 1806, 299, -531, -316
4870, -16468, -833, 1750, 320, -475, -339
4880, -16450, -841, 1714, 317, -459, -346
4890, -16410, -904, 1723, 321, -528, -334
4900, -16412, -920, 1745, 363, -563, -343
4910, -16414, -957, 1759, 358, -539, -342
4920, -16438, -1003, 1676, 365, -473, -326
4930, -16447, -986, 1651, 356, -480, -321
4940, -16434, -980, 1660, 343, -498, -311
4950, -16429, -977, 1671, 349, -513, -327
4960, -16419, -977, 1671, 363, -498, -333
4970, -16445, -972, 1630, 358, -495, -337
4980, -16411, -964, 1633, 346, -497, -305
4990, -16400, -932, 1665, 353, -499, -298
5000, -16407, -928, 1671, 362, -513, -298
5010, -16415, -942, 1693, 335, -435, -282
5020, -16432, -935, 1655, 327, -408, -280
5030, -16434, -941, 1650, 350, -424, -298
5040, -16445, -943, 1651, 363, -466, -309
5050, -16416, -954, 1728, 374, -525, -321
5060, -16418, -954, 1776, 358, -513, -317
5070, -16422, -890, 1758, 333, -430, -310
5080, -16407, -866, 1736, 326, -446, -321
5090, -16391, -866, 1765, 336, -464, -323
5100, -16383, -873, 1782, 347, -491, -349
5110, -16435, -871, 1789, 352, -440, -369
5120, -16445, -884, 1728, 340, -394, -337
5130, -16476, -892, 1671, 354, -394, -339
5140, -16427, -915, 1656, 348, -432, -336
5150, -16428, -943, 1642, 348, -417, -309
5160, -16411, -915, 1659, 344, -414, -325
5170, -16404, -915, 1635, 358, -414, -338
5180, -16407, -913, 1638, 348, -437, -333
5190, -16418, -950, 1672, 348, -444, -334
5200, -16414, -957, 1674, 346, -433, -337
5210, -16427, -960, 1650, 345, -432, -346
5220, -16422, -979, 1670, 346, -447, -356
5230, -16412, -970, 1660, 347, -464, -341
5240, -16417, -970, 1673, 318, -445, -321
5250, -16424, -979, 1659, 324, -429, -318
5260, -16415, -966, 1645, 318, -423, -304
5270, -16443, -961, 1678, 334, -450, -309
5280, -16429, -964, 1699, 352, -462, -317
5290, -16408, -928, 1710, 329, -439, -313
5300, -16415, -950, 1703, 347, -435, -325
5310, -16413, -952, 1725, 337, -452, -312
5320, -16434, -940, 1711, 336, -451, -300
5330, -16441, -923, 1739, 329, -427, -296
5340, -16440, -898, 1742, 342, -426, -306
5350, -16440, -911, 1748, 339, -411, -295
5360, -16412, -891, 1742, 341, -391, -311
5370, -16401, -893, 1715, 362, -382, -310
5380, -16411, -903, 1682, 341, -354, -313
5390, -16415, -910, 1673, 347, -354, -320
5400, -16414, -909, 1634, 351, -340, -317
5410, -16425, -909, 1628, 358, -337, -321
5420, -16461, -899, 1590, 350, -328, -322
5430, -16432, -901, 1600, 345, -357, -319
5440, -16402, -908, 1617, 331, -388, -311
5450, -16379, -944, 1644, 310, -372, -298
5460, -16382, -957, 1659, 329, -342, -301
5470, -16441, -950, 1610, 359, -310, -295
5480, -16456, -982, 1589, 387, -345, -330
5490, -16449, -972, 1594, 387, -374, -348
5500, -16452, -929, 1627, 366, -393, -329
5510, -16420, -919, 1637, 355, -385, -329
5520, -16378, -933, 1574, 352, -362, -330
5530, -16344, -971, 1581, 350, -382, -330
5540, -16395, -951, 1700, 322, -453, -320
5550, -16422, -920, 1764, 330, -431, -316
5560, -16449, -898, 1683, 339, -311, -328
5570, -16422, -936, 1640, 339, -327, -312
5580, -16415, -940, 1648, 365, -377, -321
5590, -16418, -947, 1645, 386, -379, -327
5600, -16427, -964, 1638, 389, -356, -322
5610, -16422, -956, 1593, 376, -304, -311
5620, -16435, -946, 1565, 369, -300, -303
5630, -16441, -934, 1533, 375, -314, -308
5640, -16447, -923, 1553, 377, -344, -313
5650, -16438, -943, 1552, 336, -346, -300
5660, -16429, -945, 1556, 371, -375, -315
5670, -16401, -924, 1584, 341, -322, -289
5680, -16395, -924, 1590, 365, -328, -300
5690, -16411, -927, 1570, 349, -306, -308
5700, -16419, -918, 1563, 356, -281, -310
5710, -16460, -967, 1490, 394, -285, -335
5720, -16440, -951, 1477, 385, -307, -324
5730, -16438, -960, 1506, 384, -367, -323
5740, -16419, -939, 1602, 363, -416, -337
5750, -16413, -899, 1627, 354, -396, -330
5760, -16428, -887, 1603, 366, -350, -336
5770, -16424, -907, 1557, 362, -358, -320
5780, -16415, -911, 1542, 359, -391, -331
5790, -16421, -917, 1543, 353, -403, -335
5800, -16426, -955, 1488, 374, -428, -334
5810, -16426, -974, 1483, 378, -434, -327
5820, -16422, -952, 1469, 351, -457, -320
5830, -16430, -961, 1482, 345, -470, -316
5840, -16437, -959, 1469, 358, -507, -331
5850, -16441, -932, 1487, 338, -513, -316
5860, -16434, -949, 1484, 329, -530, -328
5870, -16447, -975, 1492, 353, -551, -324
5880, -16414, -955, 1495, 324, -564, -319
5890, -16414, -977, 1542, 337, -616, -321
5900, -16429, -968, 1547, 331, -600, -314
5910, -16433, -950, 1554, 329, -595, -320
5920, -16415, -946, 1586, 326, -599, -330
5930, -16416, -937, 1594, 340, -589, -341
5940, -16438, -924, 1605, 325, -568, -316
5950, -16447, -929, 1614, 330, -571, -322
5960, -16423, -936, 1609, 327, -548, -314
5970, -16446, -929, 1611, 335, -547, -324
5980, -16455, -947, 1619, 341, -556, -324
5990, -16424, -951, 1605, 343, -557, -330
6000, -16421, -948, 1611, 337, -532, -317
6010, -16417, -933, 1591, 329, -516, -326
6020, -16418, -956, 1603, 317, -503, -319
6030, -16426, -952, 1577, 343, -519, -341
6040, -16426, -940, 1591, 350, -505, -325
6050, -16424, -941, 1597, 319, -492, -315
6060, -16419, -946, 1603, 340, -516, -339
6070, -16411, -947, 1597, 344, -513, -332
6080, -16430, -966, 1614, 341, -472, -322
6090, -16434, -955, 1585, 348, -472, -321
6100, -16446, -954, 1592, 361, -502, -328
6110, -16410, -946, 1599, 358, -526, -321
6120, -16413, -954, 1595, 345, -519, -322
6130, -16444, -958, 1580, 341, -507, -308
6140, -16448, -955, 1594, 334, -488, -308
6150, -16420, -995, 1640, 356, -501, -316
6160, -16414, -994, 1646, 357, -493, -304
6170, -16409, -980, 1648, 352, -506, -305
6180, -16486, -972, 1585, 362, -518, -320
6190, -16485, -953, 1591, 382, -543, -328
6200, -16467, -918, 1607, 370, -548, -333
6210, -16408, -865, 1673, 332, -564, -320
6220, -16368, -890, 1652, 343, -549, -338
6230, -16321, -938, 1592, 347, -505, -327
6240, -16346, -973, 1587, 336, -505, -330
6250, -16440, -902, 1716, 333, -565, -336
6260, -16470, -898, 1713, 320, -497, -323
6270, -16457, -890, 1665, 324, -458, -317
6280, -16404, -923, 1610, 324, -513, -313
6290, -16406, -947, 1646, 329, -566, -308
6300, -16413, -953, 1677, 365, -559, -309
6310, -16413, -950, 1654, 344, -512, -296
6320, -16429, -971, 1638, 354, -504, -303
6330, -16441, -961, 1625, 350, -494, -304
6340, -16432, -965, 1629, 350, -496, -311
6350, -16430, -950, 1614, 352, -513, -320
6360, -16431, -953, 1624, 350, -509, -324
6370, -16411, -953, 1654, 357, -529, -327
6380, -16397, -921, 1673, 341, -519, -312
6390, -16376, -926, 1697, 328, -498, -299
6400, -16407, -916, 1705, 341, -483, -312
6410, -16430, -925, 1682, 352, -411, -331
6420, -16462, -940, 1648, 345, -389, -329
6430, -16451, -960, 1632, 348, -407, -332
6440, -16395, -965, 1692, 350, -476, -329
6450, -16381, -920, 1697, 352, -464, -330
6460, -16431, -940, 1676, 347, -448, -332
6470, -16426, -916, 1657, 354, -442, -319
6480, -16412, -911, 1695, 361, -487, -327
6490, -16405, -907, 1665, 360, -497, -319
6500, -16406, -936, 1679, 351, -496, -319
6510, -16430, -953, 1685, 353, -496, -315
6520, -16430, -955, 1667, 382, -510, -336
6530, -16452, -950, 1631, 354, -505, -333
6540, -16428, -952, 1624, 329, -475, -314
6550, -16403, -941, 1630, 332, -485, -316
6560, -16398, -950, 1625, 329, -493, -317
6570, -16420, -950, 1646, 339, -492, -325
6580, -16411, -948, 1661, 360, -499, -325
6590, -16430, -943, 1656, 349, -496, -313
6600, -16418, -958, 1679, 338, -494, -322
6610, -16419, -950, 1673, 311, -503, -311
6620, -16423, -949, 1673, 338, -525, -326
6630, -16410, -923, 1683, 345, -528, -316
6640, -16415, -950, 1713, 338, -526, -331
6650, -16406, -948, 1732, 335, -518, -319
6660, -16428, -942, 1716, 333, -497, -323
6670, -16426, -950, 1705, 358, -492, -324
6680, -16421, -956, 1702, 337, -466, -310
6690, -16429, -943, 1698, 346, -488, -320
6700, -16416, -947, 1694, 344, -478, -299
6710, -16425, -945, 1699, 332, -487, -311
6720, -16430, -930, 1703, 347, -479, -312
6730, -16416, -945, 1683, 337, -477, -303
6740, -16416, -945, 1686, 344, -469, -322
6750, -16428, -946, 1684, 342, -470, -326
6760, -16415, -944, 1672, 355, -470, -327
6770, -16419, -948, 1664, 332, -464, -304
6780, -16419, -966, 1713, 353, -495, -321
6790, -16417, -953, 1720, 337, -488, -316
6800, -16424, -965, 1717, 342, -487, -322
6810, -16426, -942, 1689, 343, -480, -320
6820, -16421, -942, 1713, 344, -483, -319
6830, -16426, -958, 1701, 354, -490, -328
6840, -16411, -926, 1722, 359, -504, -322
6850, -16414, -943, 1732, 350, -492, -313
6860, -16417, -943, 1717, 353, -479, -317
6870, -16414, -947, 1721, 351, -476, -314
6880, -16413, -956, 1723, 368, -480, -327
6890, -16417, -946, 1703, 349, -464, -305
6900, -16434, -950, 1693, 351, -466, -303
6910, -16414, -933, 1688, 336, -472, -306
6920, -16402, -940, 1715, 323, -477, -287
6930, -16381, -958, 1724, 349, -506, -305
6940, -16410, -981, 1755, 364, -459, -303
6950, -16431, -959, 1724, 389, -460, -335
6960, -16483, -949, 1681, 376, -445, -330
6970, -16490, -943, 1644, 359, -443, -339
6980, -16442, -892, 1729, 336, -478, -326
6990, -16397, -901, 1715, 342, -499, -330
7000, -16310, -925, 1668, 331, -472, -326
7010, -16309, -957, 1651, 318, -466, -317
7020, -16433, -946, 1788, 330, -537, -339
7030, -16483, -890, 1830, 318, -499, -327
7040, -16464, -912, 1730, 296, -418, -317
7050, -16428, -930, 1715, 314, -453, -322
7060, -16381, -943, 1720, 329, -497, -328
7070, -16397, -960, 1758, 353, -527, -303
7080, -16416, -977, 1740, 351, -495, -306
7090, -16420, -986, 1712, 353, -460, -303
7100, -16418, -997, 1726, 355, -469, -301
7110, -16409, -944, 1725, 348, -501, -320
7120, -16409, -972, 1721, 342, -480, -310
7130, -16412, -962, 1703, 347, -459, -305
7140, -16412, -978, 1724, 349, -464, -321
7150, -16399, -960, 1721, 340, -473, -319
7160, -16380, -938, 1754, 344, -464, -310
7170, -16370, -938, 1800, 353, -468, -321
7180, -16433, -926, 1777, 350, -409, -316
7190, -16460, -902, 1731, 330, -379, -318
7200, -16477, -931, 1696, 329, -375, -320
7210, -16390, -945, 1717, 357, -467, -323
7220, -16400, -941, 1771, 362, -475, -324
7230, -16381, -914, 1782, 354, -451, -319
7240, -16414, -888, 1743, 337, -412, -315
7250, -16451, -909, 1708, 323, -419, -306
7260, -16408, -917, 1723, 343, -467, -309
7270, -16389, -921, 1784, 364, -487, -325
7280, -16417, -931, 1770, 347, -453, -321
7290, -16437, -944, 1740, 339, -427, -313
7300, -16445, -977, 1679, 368, -443, -324
7310, -16417, -974, 1680, 361, -475, -331
7320, -16426, -973, 1690, 352, -464, -315
7330, -16413, -954, 1692, 340, -467, -315
7340, -16400, -953, 1707, 337, -456, -309
7350, -16392, -963, 1725, 352, -466, -335
7360, -16407, -961, 1717, 334, -451, -314
7370, -16420, -972, 1716, 343, -453, -315
7380, -16414, -956, 1723, 324, -459, -309
7390, -16417, -950, 1724, 328, -456, -310
7400, -16434, -956, 1722, 326, -468, -312
7410, -16419, -952, 1760, 357, -483, -319
7420, -16413, -933, 1752, 347, -474, -311
7430, -16413, -924, 1770, 338, -462, -314
7440, -16411, -939, 1735, 341, -445, -308
7450, -16433, -930, 1725, 343, -450, -319
7460, -16418, -938, 1712, 337, -441, -303
7470, -16425, -934, 1737, 339, -441, -304
7480, -16405, -920, 1727, 344, -455, -311
7490, -16424, -943, 1738, 335, -456, -299
7500, -16420, -921, 1737, 343, -454, -307
7510, -16423, -941, 1723, 358, -458, -320
7520, -16417, -946, 1717, 329, -428, -305
7530, -16423, -956, 1732, 348, -441, -313
7540, -16408, -949, 1706, 371, -453, -318
7550, -16415, -950, 1694, 343, -453, -312
7560, -16420, -951, 1711, 341, -456, -309
7570, -16413, -945, 1735, 349, -463, -317
7580, -16409, -951, 1732, 337, -466, -308
7590, -16412, -959, 1723, 348, -455, -311
7600, -16415, -945, 1727, 339, -465, -314
7610, -16420, -962, 1743, 330, -459, -307
7620, -16413, -932, 1742, 340, -468, -317
7630, -16430, -957, 1730, 338, -469, -324
7640, -16414, -940, 1727, 341, -475, -327
7650, -16411, -947, 1737, 345, -469, -331
7660, -16406, -932, 1739, 347, -447, -322
7670, -16455, -914, 1707, 358, -453, -317
7680, -16430, -925, 1729, 339, -463, -316
7690, -16435, -919, 1741, 351, -455, -307
7700, -16413, -922, 1752, 354, -466, -311
7710, -16413, -945, 1726, 362, -454, -314
7720, -16412, -946, 1737, 342, -445, -300
7730, -16398, -942, 1718, 358, -462, -304
7740, -16425, -961, 1676, 361, -456, -313
7750, -16370, -966, 1788, 335, -490, -308
7760, -16415, -986, 1766, 352, -469, -333
7770, -16444, -942, 1710, 364, -407, -304
7780, -16475, -945, 1651, 355, -421, -322
7790, -16479, -958, 1621, 338, -469, -335
7800, -16435, -889, 1764, 323, -515, -318
7810, -16375, -894, 1778, 311, -505, -321
7820, -16290, -916, 1748, 315, -460, -315
7830, -16380, -956, 1757, 331, -463, -329
7840, -16441, -914, 1829, 327, -475, -324
7850, -16482, -916, 1848, 331, -458, -348
7860, -16476, -911, 1806, 328, -386, -330
7870, -16418, -942, 1703, 354, -418, -333
7880, -16409, -948, 1739, 348, -478, -315
7890, -16401, -959, 1784, 357, -501, -313
7900, -16414, -973, 1760, 356, -434, -302
7910, -16401, -969, 1698, 361, -407, -296
7920, -16412, -988, 1688, 356, -408, -290
7930, -16410, -960, 1731, 346, -420, -293
7940, -16431, -962, 1726, 367, -414, -319
7950, -16440, -965, 1699, 371, -383, -312
7960, -16447, -958, 1694, 367, -375, -305
7970, -16385, -934, 1713, 344, -383, -304
7980, -16379, -930, 1719, 342, -395, -310
7990, -16398, -917, 1764, 363, -375, -318
8000, -16431, -924, 1746, 337, -327, -304
8010, -16442, -897, 1723, 352, -307, -316
8020, -16442, -924, 1677, 341, -320, -312
8030, -16412, -933, 1675, 359, -363, -308
8040, -16397, -924, 1732, 371, -389, -316
8050, -16401, -929, 1765, 372, -400, -328
8060, -16445, -904, 1714, 357, -331, -317
8070, -16425, -904, 1684, 369, -321, -320
8080, -16437, -925, 1671, 362, -342, -308
8090, -16391, -941, 1696, 363, -424, -319
8100, -16435, -952, 1713, 362, -407, -327
8110, -16439, -965, 1693, 362, -378, -321
8120, -16455, -968, 1681, 363, -366, -329
8130, -16435, -979, 1628, 361, -369, -332
8140, -16436, -964, 1608, 380, -385, -325
8150, -16409, -947, 1628, 373, -401, -318
8160, -16409, -947, 1627, 375, -422, -333
8170, -16414, -958, 1645, 360, -420, -326
8180, -16401, -944, 1661, 353, -424, -321
8190, -16412, -947, 1639, 353, -424, -322
8200, -16422, -956, 1656, 352, -423, -300
8210, -16436, -941, 1677, 347, -436, -309
8220, -16433, -953, 1675, 330, -448, -309
8230, -16433, -931, 1697, 347, -452, -316
8240, -16438, -927, 1693, 345, -439, -305
8250, -16430, -945, 1686, 358, -408, -316
8260, -16421, -929, 1683, 340, -391, -292
8270, -16420, -921, 1684, 343, -391, -301
8280, -16426, -940, 1664, 333, -396, -303
8290, -16429, -926, 1672, 350, -388, -298
8300, -16416, -943, 1667, 343, -385, -295
8310, -16432, -949, 1666, 351, -401, -308
8320, -16423, -951, 1647, 342, -392, -309
8330, -16414, -933, 1644, 344, -386, -298
8340, -16415, -947, 1643, 355, -388, -309
8350, -16406, -947, 1636, 377, -408, -329
8360, -16420, -952, 1626, 342, -385, -309
8370, -16415, -952, 1630, 348, -391, -315
8380, -16409, -955, 1645, 354, -405, -325
8390, -16434, -959, 1624, 379, -411, -326
8400, -16417, -941, 1616, 363, -409, -328
8410, -16416, -949, 1632, 364, -413, -328
8420, -16429, -946, 1643, 371, -425, -330
8430, -16420, -950, 1630, 351, -430, -310
8440, -16417, -936, 1651, 379, -447, -325
8450, -16432, -946, 1620, 370, -431, -320
8460, -16436, -948, 1633, 373, -442, -320
8470, -16425, -935, 1624, 355, -438, -302
8480, -16443, -935, 1616, 354, -460, -307
8490, -16434, -924, 1639, 338, -456, -312
8500, -16436, -935, 1627, 354, -460, -330
8510, -16425, -937, 1631, 354, -471, -321
8520, -16409, -936, 1630, 342, -485, -303
8530, -16401, -926, 1626, 345, -477, -295
8540, -16408, -924, 1627, 337, -482, -317
8550, -16452, -952, 1589, 328, -467, -324
8560, -16425, -953, 1608, 348, -483, -320
8570, -16410, -961, 1643, 360, -483, -313
8580, -16389, -980, 1660, 351, -479, -301
8590, -16427, -990, 1647, 366, -485, -313
8600, -16460, -957, 1604, 355, -476, -319
8610, -16511, -938, 1592, 352, -478, -316
8620, -16434, -904, 1642, 337, -542, -324
8630, -16412, -876, 1708, 333, -545, -332
8640, -16370, -890, 1750, 324, -529, -332
8650, -16327, -979, 1588, 364, -422, -341
8660, -16408, -967, 1630, 341, -432, -313
8670, -16469, -933, 1687, 322, -491, -321
8680, -16496, -918, 1700, 316, -476, -334
8690, -16469, -937, 1620, 308, -436, -315
8700, -16396, -953, 1595, 323, -478, -306
8710, -16396, -954, 1628, 335, -546, -314
8720, -16428, -993, 1611, 366, -464, -287
8730, -16414, -965, 1594, 371, -495, -306
8740, -16427, -960, 1594, 354, -506, -309
8750, -16428, -934, 1623, 349, -509, -315
8760, -16432, -951, 1621, 337, -494, -303
8770, -16426, -950, 1640, 345, -521, -317
8780, -16379, -923, 1704, 344, -532, -308
8790, -16393, -923, 1704, 351, -519, -319
8800, -16409, -906, 1712, 328, -464, -314
8810, -16424, -916, 1679, 321, -425, -313
8820, -16468, -923, 1638, 342, -444, -319
8830, -16425, -940, 1663, 343, -438, -305
8840, -16413, -951, 1676, 358, -467, -312
8850, -16414, -908, 1736, 364, -485, -318
8860, -16432, -917, 1712, 354, -457, -316
8870, -16451, -939, 1673, 337, -442, -304
8880, -16423, -957, 1669, 335, -467, -304
8890, -16406, -945, 1705, 342, -516, -325
8900, -16425, -980, 1700, 350, -512, -323
8910, -16420, -978, 1699, 342, -479, -324
8920, -16436, -952, 1635, 350, -459, -319
8930, -16433, -961, 1629, 347, -456, -317
8940, -16415, -943, 1637, 341, -478, -323
8950, -16404, -937, 1632, 339, -476, -312
8960, -16410, -938, 1646, 323, -460, -300
8970, -16412, -943, 1668, 360, -488, -328
8980, -16427, -961, 1676, 335, -457, -303
8990, -16418, -958, 1680, 353, -477, -323
9000, -16405, -968, 1668, 353, -479, -324
9010, -16418, -957, 1695, 335, -487, -325
9020, -16421, -950, 1693, 354, -500, -323
9030, -16424, -940, 1739, 349, -497, -322
9040, -16419, -938, 1712, 351, -489, -322
9050, -16427, -946, 1699, 337, -489, -321
9060, -16432, -937, 1713, 358, -481, -322
9070, -16437, -931, 1687, 356, -474, -322
9080, -16431, -949, 1681, 353, -463, -319
9090, -16414, -936, 1687, 337, -463, -309
9100, -16446, -936, 1700, 349, -465, -308
9110, -16424, -941, 1685, 356, -470, -327
9120, -16420, -933, 1692, 347, -480, -322
9130, -16420, -944, 1666, 351, -478, -319
9140, -16414, -927, 1685, 352, -471, -326
9150, -16414, -938, 1664, 347, -458, -308
9160, -16406, -943, 1677, 328, -459, -297
9170, -16439, -944, 1665, 355, -476, -319
9180, -16432, -962, 1674, 340, -462, -324
9190, -16431, -964, 1702, 352, -466, -326
9200, -16424, -959, 1695, 358, -479, -321
9210, -16410, -939, 1706, 362, -492, -320
9220, -16427, -961, 1690, 339, -470, -326
9230, -16423, -965, 1707, 337, -463, -319
9240, -16437, -946, 1700, 334, -480, -314
9250, -16423, -943, 1703, 332, -478, -321
9260, -16413, -940, 1684, 346, -482, -319
9270, -16431, -937, 1694, 330, -492, -320
9280, -16422, -943, 1695, 353, -479, -324
9290, -16420, -946, 1702, 364, -474, -323
9300, -16414, -930, 1727, 367, -483, -323
9310, -16403, -924, 1711, 380, -499, -318
9320, -16423, -952, 1678, 358, -472, -320
9330, -16443, -930, 1672, 344, -465, -311
9340, -16404, -934, 1675, 337, -489, -314
9350, -16384, -946, 1720, 340, -496, -312
9360, -16401, -964, 1736, 340, -496, -328
9370, -16405, -987, 1708, 342, -485, -324
9380, -16434, -937, 1683, 343, -453, -308
9390, -16457, -965, 1659, 347, -458, -327
9400, -16458, -935, 1665, 355, -475, -331
9410, -16414, -894, 1736, 333, -532, -321
9420, -16386, -894, 1752, 300, -493, -311
9430, -16328, -926, 1717, 334, -466, -320
9440, -16325, -976, 1657, 343, -449, -316
9450, -16440, -949, 1763, 319, -521, -330
9460, -16502, -920, 1802, 322, -523, -341
9470, -16459, -919, 1700, 319, -442, -332
9480, -16422, -928, 1662, 332, -469, -324
9490, -16410, -955, 1705, 324, -526, -318
9500, -16400, -966, 1772, 343, -537, -304
9510, -16423, -972, 1752, 376, -520, -314
9520, -16415, -977, 1717, 347, -448, -289
9530, -16417, -962, 1678, 350, -439, -297
9540, -16417, -959, 1698, 351, -491, -313
9550, -16431, -961, 1702, 349, -472, -318
9560, -16426, -979, 1694, 358, -478, -326
9570, -16403, -953, 1688, 345, -471, -319
9580, -16403, -944, 1702, 340, -482, -319
9590, -16368, -931, 1745, 344, -488, -319
9600, -16403, -929, 1769, 345, -473, -312
9610, -16432, -922, 1758, 348, -424, -328
9620, -16447, -909, 1713, 345, -404, -336
9630, -16432, -925, 1690, 336, -384, -319
9640, -16401, -946, 1726, 354, -443, -307
9650, -16399, -947, 1762, 353, -463, -304
9660, -16411, -928, 1769, 353, -464, -317
9670, -16405, -891, 1748, 347, -431, -315
9680, -16449, -918, 1691, 342, -408, -308
9690, -16410, -951, 1702, 342, -461, -311
9700, -16436, -965, 1686, 355, -438, -328
9710, -16450, -966, 1679, 338, -443, -314
9720, -16426, -967, 1695, 335, -462, -312
9730, -16392, -941, 1715, 359, -481, -328
9740, -16389, -938, 1715, 345, -456, -299
9750, -16412, -948, 1710, 344, -435, -317
9760, -16409, -949, 1712, 335, -442, -321
9770, -16422, -961, 1695, 338, -467, -314
9780, -16422, -952, 1718, 332, -452, -308
9790, -16403, -952, 1709, 333, -449, -316
9800, -16424, -956, 1726, 326, -460, -306
9810, -16412, -944, 1743, 338, -483, -317
9820, -16402, -923, 1765, 335, -472, -312
9830, -16425, -949, 1745, 330, -468, -306
9840, -16416, -942, 1734, 342, -470, -319
9850, -16424, -931, 1729, 341, -455, -321
9860, -16432, -929, 1734, 345, -454, -316
9870, -16421, -942, 1720, 341, -463, -322
9880, -16414, -936, 1731, 365, -466, -323
9890, -16422, -939, 1728, 345, -462, -317
9900, -16416, -962, 1700, 352, -456, -311
9910, -16409, -944, 1720, 348, -436, -302
9920, -16418, -957, 1712, 351, -442, -313
9930, -16416, -964, 1723, 338, -443, -309
9940, -16412, -941, 1712, 367, -453, -324
9950, -16411, -932, 1710, 348, -447, -315
9960, -16408, -944, 1724, 336, -446, -309
9970, -16414, -947, 1710, 365, -458, -321
9980, -16413, -935, 1715, 358, -459, -332
9990, -16412, -943, 1693, 341, -462, -325
10000, -16421, -973, 1734, 326, -459, -302
10010, -16412, -956, 1746, 358, -470, -323
10020, -16409, -940, 1745, 343, -460, -312
10030, -16419, -946, 1735, 336, -456, -318
10040, -16429, -939, 1744, 356, -478, -336
10050, -16446, -939, 1741, 353, -478, -327
10060, -16423, -939, 1733, 367, -462, -314
10070, -16417, -934, 1760, 340, -458, -312
10080, -16407, -931, 1727, 335, -454, -309
10090, -16414, -935, 1738, 347, -458, -311
10100, -16393, -937, 1727, 333, -451, -305
10110, -16423, -948, 1727, 355, -458, -309
10120, -16426, -982, 1695, 357, -467, -324
10130, -16410, -942, 1672, 346, -485, -313
10140, -16400, -936, 1737, 312, -479, -299
10150, -16385, -941, 1773, 332, -493, -307
10160, -16391, -965, 1786, 346, -470, -320
10170, -16432, -949, 1716, 350, -409, -306
10180, -16480, -938, 1680, 351, -419, -326
10190, -16460, -926, 1689, 349, -463, -318
10200, -16436, -907, 1748, 332, -493, -323
10210, -16398, -892, 1774, 324, -491, -323
10220, -16309, -943, 1675, 343, -440, -315
10230, -16363, -967, 1707, 318, -454, -312
10240, -16427, -952, 1769, 328, -515, -335
10250, -16461, -918, 1832, 332, -531, -337
10260, -16475, -913, 1752, 326, -415, -319
10270, -16430, -939, 1686, 317, -422, -310
10280, -16397, -952, 1698, 328, -487, -315
10290, -16401, -979, 1810, 350, -536, -299
10300, -16416, -984, 1790, 344, -482, -296
10310, -16421, -978, 1732, 362, -437, -294
10320, -16413, -964, 1680, 355, -422, -285
10330, -16412, -960, 1720, 339, -462, -305
10340, -16410, -961, 1728, 350, -471, -309
10350, -16421, -961, 1730, 348, -451, -316
10360, -16412, -947, 1707, 328, -443, -305
10370, -16410, -948, 1722, 344, -451, -308
10380, -16390, -922, 1737, 345, -463, -308
10390, -16385, -912, 1779, 347, -449, -307
10400, -16416, -914, 1785, 343, -410, -309
10410, -16444, -903, 1751, 345, -378, -316
10420, -16442, -926, 1699, 354, -408, -320
10430, -16414, -952, 1713, 357, -441, -320
10440, -16401, -931, 1774, 365, -470, -322
10450, -16412, -924, 1789, 364, -451, -326
10460, -16434, -915, 1762, 349, -411, -310
10470, -16434, -937, 1712, 341, -418, -306
10480, -16410, -952, 1722, 329, -469, -311
10490, -16405, -944, 1770, 344, -480, -319
10500, -16401, -940, 1764, 352, -455, -323
10510, -16447, -971, 1708, 365, -435, -327
10520, -16442, -979, 1699, 349, -444, -316
10530, -16428, -969, 1703, 344, -461, -321
10540, -16410, -943, 1688, 335, -468, -313
10550, -16410, -930, 1704, 351, -450, -305
10560, -16412, -945, 1721, 341, -450, -310
10570, -16423, -941, 1718, 345, -459, -311
10580, -16407, -951, 1721, 323, -439, -300
10590, -16416, -957, 1741, 330, -451, -317
10600, -16424, -974, 1737, 346, -447, -318
10610, -16431, -941, 1733, 339, -455, -318
10620, -16412, -944, 1730, 342, -487, -332
10630, -16424, -949, 1746, 348, -480, -323
10640, -16438, -947, 1738, 355, -475, -318
10650, -16417, -941, 1735, 353, -449, -312
10660, -16415, -949, 1731, 342, -444, -318
10670, -16439, -939, 1729, 353, -459, -326
10680, -16419, -936, 1751, 356, -465, -316
10690, -16412, -942, 1730, 351, -466, -321
10700, -16411, -929, 1738, 351, -463, -327
10710, -16419, -945, 1727, 353, -453, -316
10720, -16411, -934, 1724, 365, -456, -323
10730, -16423, -959, 1720, 356, -451, -329
10740, -16421, -955, 1696, 345, -450, -318
10750, -16401, -962, 1724, 347, -461, -315
10760, -16414, -938, 1724, 338, -461, -305
10770, -16408, -931, 1736, 351, -474, -318
10780, -16400, -943, 1754, 346, -463, -328
10790, -16412, -959, 1753, 348, -464, -319
10800, -16414, -956, 1736, 338, -447, -312
10810, -16416, -951, 1737, 342, -458, -317
10820, -16426, -950, 1744, 363, -476, -327
10830, -16425, -936, 1749, 348, -467, -311
10840, -16435, -932, 1749, 346, -455, -312
10850, -16430, -945, 1706, 338, -452, -301
10860, -16421, -946, 1733, 338, -460, -309
10870, -16406, -942, 1729, 341, -450, -304
10880, -16403, -938, 1724, 358, -457, -308
10890, -16437, -944, 1702, 353, -450, -318
10900, -16456, -941, 1681, 343, -443, -305
10910, -16408, -933, 1726, 352, -487, -316
10920, -16370, -946, 1790, 328, -486, -302
10930, -16406, -971, 1800, 354, -477, -327
10940, -16431, -979, 1797, 352, -436, -326
10950, -16468, -939, 1681, 350, -432, -336
10960, -16470, -953, 1660, 346, -461, -335
10970, -16443, -925, 1710, 347, -484, -332
10980, -16413, -900, 1793, 334, -481, -315
10990, -16366, -908, 1769, 313, -456, -316
11000, -16311, -945, 1680, 316, -422, -311
11010, -16413, -956, 1773, 328, -482, -331
11020, -16479, -932, 1828, 330, -528, -349
11030, -16479, -917, 1832, 336, -468, -344
11040, -16473, -916, 1784, 338, -413, -331
11050, -16396, -938, 1699, 355, -483, -324
11060, -16379, -960, 1755, 358, -525, -315
11070, -16388, -979, 1801, 374, -530, -311
11080, -16409, -989, 1734, 360, -419, -290
11090, -16420, -976, 1698, 363, -424, -300
11100, -16421, -972, 1686, 336, -437, -294
11110, -16421, -967, 1741, 320, -455, -303
11120, -16435, -957, 1729, 335, -431, -314
11130, -16421, -957, 1714, 337, -423, -310
11140, -16404, -938, 1717, 335, -441, -317
11150, -16389, -921, 1735, 357, -462, -312
11160, -16401, -912, 1772, 352, -463, -310
11170, -16427, -921, 1780, 361, -404, -325
11180, -16433, -891, 1733, 336, -362, -314
11190, -16462, -894, 1694, 332, -351, -321
11200, -16411, -946, 1697, 328, -431, -310
11210, -16406, -927, 1809, 362, -452, -314
11220, -16420, -924, 1818, 361, -432, -314
11230, -16443, -907, 1774, 343, -404, -314
11240, -16443, -912, 1729, 338, -395, -308
11250, -16403, -954, 1754, 352, -462, -328
11260, -16402, -954, 1766, 355, -467, -333
11270, -16417, -951, 1755, 360, -447, -328
11280, -16425, -961, 1724, 358, -401, -313
11290, -16446, -984, 1696, 351, -414, -319
11300, -16437, -963, 1703, 358, -434, -322
11310, -16402, -954, 1712, 347, -419, -315
11320, -16401, -941, 1688, 360, -415, -313
11330, -16410, -948, 1681, 332, -409, -305
11340, -16410, -954, 1734, 329, -418, -308
11350, -16431, -978, 1715, 363, -435, -326
11360, -16415, -954, 1740, 358, -422, -319
11370, -16407, -934, 1717, 350, -425, -322
11380, -16422, -955, 1708, 347, -427, -321
11390, -16414, -961, 1732, 347, -424, -320
11400, -16408, -919, 1737, 367, -422, -316
11410, -16405, -929, 1754, 341, -389, -303
11420, -16420, -932, 1744, 360, -390, -308
11430, -16412, -925, 1724, 368, -381, -325
11440, -16421, -936, 1733, 361, -373, -314
11450, -16423, -923, 1721, 377, -382, -330
11460, -16413, -933, 1723, 369, -388, -322
11470, -16429, -947, 1692, 357, -373, -311
11480, -16426, -944, 1685, 362, -376, -320
11490, -16413, -935, 1688, 366, -390, -324
11500, -16413, -941, 1688, 351, -360, -309
11510, -16412, -946, 1685, 376, -382, -327
11520, -16408, -939, 1686, 371, -360, -315
11530, -16412, -951, 1662, 356, -360, -329
11540, -16412, -947, 1644, 358, -357, -322
11550, -16416, -957, 1658, 348, -375, -316
11560, -16416, -975, 1663, 355, -389, -316
11570, -16409, -949, 1679, 352, -383, -320
11580, -16420, -961, 1684, 372, -391, -329
11590, -16401, -964, 1673, 355, -367, -312
11600, -16429, -956, 1661, 367, -377, -322
11610, -16433, -926, 1657, 362, -384, -326
11620, -16429, -934, 1653, 364, -402, -323
11630, -16439, -942, 1645, 357, -391, -312
11640, -16412, -936, 1666, 369, -392, -313
11650, -16413, -926, 1661, 365, -403, -310
11660, -16421, -928, 1624, 355, -381, -303
11670, -16461, -941, 1604, 365, -383, -309
11680, -16417, -957, 1628, 362, -405, -316
11690, -16405, -959, 1645, 357, -410, -317
11700, -16414, -984, 1661, 353, -402, -311
11710, -16443, -971, 1622, 367, -394, -322
11720, -16447, -961, 1594, 358, -387, -310
11730, -16474, -942, 1562, 364, -408, -324
11740, -16446, -936, 1584, 352, -427, -332
11750, -16414, -887, 1667, 346, -493, -339
11760, -16403, -893, 1691, 330, -460, -319
11770, -16361, -938, 1662, 341, -422, -324
11780, -16371, -969, 1635, 316, -390, -323
11790, -16439, -939, 1669, 320, -428, -329
11800, -16503, -916, 1693, 328, -451, -332
11810, -16513, -894, 1664, 322, -420, -318
11820, -16413, -954, 1597, 344, -448, -318
11830, -16409, -985, 1605, 361, -495, -313
11840, -16423, -974, 1661, 354, -502, -306
11850, -16417, -989, 1667, 375, -458, -294
11860, -16430, -1006, 1609, 379, -441, -305
11870, -16436, -976, 1549, 375, -444, -304
11880, -16437, -935, 1571, 343, -471, -290
11890, -16436, -940, 1577, 339, -492, -318
11900, -16433, -962, 1589, 330, -493, -311
11910, -16398, -951, 1619, 326, -521, -315
11920, -16372, -941, 1659, 331, -514, -318
11930, -16380, -921, 1682, 334, -498, -318
11940, -16416, -939, 1686, 333, -463, -311
11950, -16451, -909, 1647, 344, -402, -333
11960, -16473, -919, 1621, 360, -388, -330
11970, -16441, -942, 1573, 356, -388, -318
11980, -16392, -938, 1655, 365, -472, -322
11990, -16402, -923, 1678, 358, -477, -320
12000, -16404, -909, 1693, 343, -459, -312
12010, -16457, -933, 1639, 330, -423, -297
12020, -16452, -951, 1627, 338, -461, -309
12030, -16416, -956, 1646, 338, -496, -317
12040, -16434, -954, 1660, 345, -503, -323
12050, -16432, -967, 1639, 350, -458, -326
12060, -16435, -973, 1619, 347, -459, -331
12070, -16445, -968, 1599, 352, -463, -335
12080, -16415, -953, 1588, 352, -469, -305
12090, -16421, -955, 1578, 345, -483, -313
12100, -16413, -945, 1612, 347, -465, -313
12110, -16414, -945, 1618, 326, -463, -308
12120, -16438, -958, 1634, 343, -482, -324
12130, -16434, -953, 1657, 336, -476, -315
12140, -16423, -956, 1640, 337, -492, -320
12150, -16425, -975, 1653, 339, -500, -313
12160, -16441, -962, 1645, 342, -493, -312
12170, -16416, -949, 1681, 347, -493, -311
12180, -16414, -951, 1673, 346, -492, -322
12190, -16405, -939, 1655, 343, -486, -323
12200, -16430, -941, 1676, 316, -467, -307
12210, -16428, -944, 1672, 359, -491, -327
12220, -16416, -936, 1667, 340, -481, -319
12230, -16407, -921, 1640, 346, -469, -310
12240, -16422, -930, 1655, 356, -487, -317
12250, -16419, -937, 1645, 349, -478, -309
12260, -16425, -915, 1650, 342, -468, -315
12270, -16412, -941, 1633, 330, -466, -320
12280, -16426, -952, 1628, 364, -489, -319
12290, -16416, -962, 1648, 355, -482, -321
12300, -16419, -962, 1644, 341, -470, -317
12310, -16424, -968, 1643, 335, -477, -306
12320, -16422, -964, 1660, 344, -493, -318
12330, -16416, -967, 1653, 328, -470, -317
12340, -16422, -958, 1658, 339, -488, -325
12350, -16437, -955, 1672, 333, -475, -316
12360, -16419, -945, 1671, 332, -479, -316
12370, -16420, -947, 1663, 327, -468, -295
12380, -16427, -949, 1650, 340, -479, -312
12390, -16434, -972, 1675, 346, -503, -317
12400, -16422, -953, 1683, 350, -502, -300
12410, -16420, -958, 1692, 362, -512, -312
12420, -16417, -936, 1663, 344, -476, -313
12430, -16446, -939, 1643, 336, -468, -305
12440, -16440, -950, 1645, 347, -479, -312
12450, -16416, -954, 1664, 350, -487, -302
12460, -16413, -969, 1699, 333, -485, -302
12470, -16411, -975, 1677, 327, -465, -290
12480, -16419, -962, 1651, 356, -472, -301
12490, -16469, -960, 1630, 347, -483, -312
12500, -16446, -921, 1653, 339, -502, -321
12510, -16416, -918, 1685, 330, -509, -331
12520, -16414, -908, 1684, 340, -502, -327
12530, -16334, -942, 1684, 334, -457, -326
12540, -16362, -995, 1639, 334, -443, -327
12550, -16454, -943, 1682, 328, -449, -325
12560, -16404, -952, 1647, 331, -482, -310
12570, -16376, -983, 1721, 357, -576, -314
12580, -16391, -989, 1726, 366, -547, -305
12590, -16414, -969, 1723, 373, -506, -306
12600, -16434, -976, 1650, 355, -473, -301
12610, -16419, -959, 1655, 360, -497, -315
12620, -16420, -928, 1679, 341, -497, -319
12630, -16422, -945, 1672, 343, -495, -320
12640, -16418, -942, 1660, 320, -484, -302
12650, -16417, -949, 1661, 331, -479, -306
12660, -16390, -932, 1688, 327, -484, -309
12670, -16384, -924, 1717, 332, -482, -308
12680, -16415, -928, 1732, 322, -443, -309
12690, -16422, -929, 1736, 328, -412, -317
12700, -16464, -957, 1643, 347, -424, -320
12710, -16427, -955, 1658, 374, -460, -336
12720, -16401, -953, 1692, 370, -502, -326
12730, -16414, -914, 1778, 351, -467, -304
12740, -16430, -924, 1739, 348, -435, -318
12750, -16424, -928, 1685, 348, -423, -309
12760, -16402, -944, 1696, 337, -502, -327
12770, -16412, -970, 1725, 334, -506, -318
12780, -16413, -975, 1724, 345, -493, -328
12790, -16440, -954, 1708, 364, -470, -325
12800, -16422, -961, 1684, 342, -450, -326
12810, -16428, -956, 1657, 344, -451, -315
12820, -16417, -949, 1660, 340, -461, -316
12830, -16411, -926, 1670, 352, -471, -324
12840, -16412, -938, 1683, 339, -466, -317
12850, -16406, -951, 1683, 341, -465, -306
12860, -16410, -952, 1712, 325, -444, -308
12870, -16413, -937, 1706, 333, -460, -314
12880, -16430, -948, 1701, 352, -476, -325
12890, -16428, -944, 1702, 342, -482, -316
12900, -16426, -949, 1712, 328, -485, -311
12910, -16423, -953, 1705, 324, -485, -313
12920, -16412, -948, 1730, 359, -491, -325
12930, -16419, -951, 1731, 349, -482, -324
12940, -16415, -948, 1729, 336, -457, -328
12950, -16442, -954, 1715, 342, -449, -318
12960, -16433, -941, 1707, 363, -477, -319
12970, -16420, -941, 1719, 341, -464, -306
12980, -16411, -935, 1718, 345, -469, -305
12990, -16423, -946, 1712, 337, -458, -310
13000, -16415, -943, 1706, 347, -472, -322
13010, -16414, -941, 1702, 354, -468, -326
13020, -16407, -931, 1694, 345, -461, -326
13030, -16428, -959, 1694, 348, -462, -325
13040, -16409, -948, 1718, 362, -459, -334
13050, -16406, -940, 1690, 329, -464, -316
13060, -16409, -952, 1708, 354, -480, -321
13070, -16412, -957, 1709, 349, -473, -317
13080, -16426, -950, 1723, 343, -453, -317
13090, -16436, -945, 1719, 337, -457, -318
13100, -16441, -947, 1707, 349, -467, -324
13110, -16426, -957, 1702, 343, -471, -319
13120, -16422, -944, 1719, 304, -457, -298
13130, -16412, -948, 1717, 345, -470, -308
13140, -16436, -939, 1729, 342, -454, -319
13150, -16419, -949, 1700, 325, -447, -303
13160, -16412, -953, 1733, 349, -456, -308
13170, -16415, -940, 1721, 363, -474, -312
13180, -16431, -947, 1706, 370, -477, -325
13190, -16427, -961, 1688, 339, -463, -317
13200, -16431, -950, 1680, 355, -481, -316
13210, -16420, -956, 1675, 345, -486, -319
13220, -16393, -971, 1751, 336, -483, -304
13230, -16410, -971, 1764, 335, -465, -300
13240, -16426, -963, 1730, 358, -429, -300
13250, -16484, -962, 1671, 369, -431, -319
13260, -16468, -956, 1674, 358, -467, -326
13270, -16451, -936, 1687, 327, -468, -324
13280, -16382, -886, 1735, 349, -484, -325
13290, -16350, -929, 1687, 340, -461, -323
13300, -16343, -980, 1668, 326, -439, -308
13310, -16427, -951, 1803, 325, -508, -332
13320, -16484, -908, 1842, 327, -489, -336
13330, -16471, -913, 1792, 321, -440, -331
13340, -16449, -928, 1687, 330, -414, -316
13350, -16405, -950, 1722, 335, -502, -319
13360, -16383, -977, 1767, 340, -533, -312
13370, -16383, -972, 1780, 352, -509, -299
13380, -16433, -995, 1710, 343, -432, -291
13390, -16424, -973, 1681, 349, -447, -299
13400, -16418, -952, 1694, 348, -478, -309
13410, -16408, -969, 1718, 360, -482, -315
13420, -16422, -968, 1699, 362, -454, -323
13430, -16417, -969, 1691, 348, -452, -310
13440, -16407, -950, 1685, 358, -466, -325
13450, -16394, -918, 1742, 329, -459, -300
13460, -16379, -903, 1761, 333, -469, -308
13470, -16387, -928, 1786, 335, -455, -330
13480, -16450, -921, 1747, 343, -380, -327
13490, -16462, -937, 1674, 343, -364, -333
13500, -16444, -944, 1656, 348, -398, -342
13510, -16445, -903, 1732, 347, -395, -310
13520, -16433, -923, 1732, 346, -408, -314
13530, -16401, -948, 1761, 350, -492, -322
13540, -16396, -951, 1774, 347, -487, -323
13550, -16409, -957, 1766, 333, -447, -323
13560, -16432, -976, 1724, 343, -428, -321
13570, -16457, -979, 1667, 345, -440, -322
13580, -16432, -970, 1682, 348, -466, -320
13590, -16422, -966, 1694, 342, -460, -315
13600, -16386, -944, 1715, 336, -455, -321
13610, -16395, -942, 1715, 357, -456, -322
13620, -16412, -952, 1703, 341, -443, -314
13630, -16419, -952, 1753, 340, -454, -316
13640, -16432, -973, 1707, 355, -467, -325
13650, -16427, -970, 1728, 334, -456, -310
13660, -16426, -954, 1715, 338, -455, -318
13670, -16401, -941, 1724, 346, -478, -318
13680, -16421, -959, 1764, 354, -482, -316
13690, -16409, -936, 1756, 359, -474, -320
13700, -16401, -928, 1750, 355, -465, -326
13710, -16433, -947, 1738, 360, -453, -311
13720, -16440, -940, 1734, 341, -434, -315
13730, -16447, -936, 1736, 352, -450, -315
13740, -16433, -920, 1722, 373, -466, -324
13750, -16428, -938, 1747, 355, -441, -313
13760, -16426, -934, 1727, 347, -466, -333
13770, -16414, -951, 1704, 356, -466, -327
13780, -16408, -927, 1712, 353, -450, -318
13790, -16414, -950, 1710, 339, -448, -308
13800, -16413, -955, 1701, 351, -455, -319
13810, -16414, -964, 1710, 359, -453, -314
13820, -16405, -933, 1687, 337, -450, -313
13830, -16419, -966, 1716, 357, -469, -305
13840, -16406, -965, 1717, 327, -455, -308
13850, -16432, -953, 1737, 337, -461, -326
13860, -16409, -957, 1710, 345, -470, -324
13870, -16419, -963, 1732, 349, -472, -328
13880, -16418, -959, 1749, 348, -457, -318
13890, -16424, -954, 1742, 348, -449, -317
13900, -16415, -946, 1730, 333, -442, -313
13910, -16421, -942, 1705, 346, -455, -317
13920, -16426, -941, 1743, 345, -455, -317
13930, -16431, -946, 1735, 357, -472, -320
13940, -16412, -934, 1720, 347, -462, -327
13950, -16425, -943, 1715, 345, -455, -317
13960, -16414, -961, 1738, 359, -462, -296
13970, -16402, -933, 1741, 333, -449, -292
13980, -16414, -938, 1704, 357, -456, -312
13990, -16430, -964, 1676, 375, -472, -333
14000, -16438, -966, 1666, 358, -466, -320
14010, -16397, -935, 1730, 337, -491, -306
14020, -16390, -957, 1766, 336, -501, -301
14030, -16410, -977, 1760, 342, -441, -313
14040, -16434, -950, 1717, 364, -432, -322
14050, -16474, -942, 1697, 363, -432, -334
14060, -16442, -947, 1701, 340, -485, -339
14070, -16415, -923, 1751, 335, -486, -334
14080, -16411, -878, 1768, 333, -480, -322
14090, -16329, -951, 1672, 328, -432, -309
14100, -16361, -983, 1682, 325, -450, -304
14110, -16411, -963, 1752, 327, -510, -326
14120, -16462, -939, 1824, 329, -522, -340
14130, -16470, -903, 1767, 333, -423, -339
14140, -16436, -920, 1707, 330, -419, -319
14150, -16399, -966, 1712, 339, -476, -313
14160, -16400, -979, 1798, 362, -519, -307
14170, -16405, -975, 1765, 382, -487, -301
14180, -16409, -971, 1717, 374, -455, -307
14190, -16428, -995, 1701, 333, -441, -299
14200, -16423, -980, 1698, 348, -472, -315
14210, -16424, -960, 1718, 330, -460, -304
14220, -16413, -961, 1722, 349, -457, -310
14230, -16418, -947, 1713, 353, -466, -330
14240, -16409, -948, 1694, 336, -462, -324
14250, -16402, -923, 1771, 359, -466, -331
14260, -16391, -910, 1785, 343, -456, -321
14270, -16405, -917, 1778, 343, -439, -309
14280, -16461, -894, 1755, 350, -409, -314
14290, -16458, -914, 1696, 337, -359, -317
14300, -16441, -935, 1674, 349, -409, -323
14310, -16409, -943, 1710, 364, -459, -317
14320, -16412, -922, 1804, 362, -462, -321
14330, -16429, -916, 1779, 342, -420, -303
14340, -16431, -932, 1727, 337, -391, -304
14350, -16411, -955, 1727, 346, -408, -310
14360, -16381, -949, 1748, 310, -469, -297
14370, -16402, -955, 1775, 345, -474, -309
14380, -16410, -928, 1764, 353, -448, -320
14390, -16431, -983, 1704, 353, -438, -325
14400, -16425, -979, 1704, 357, -459, -340
14410, -16413, -965, 1712, 344, -462, -336
14420, -16407, -935, 1701, 337, -445, -306
14430, -16411, -957, 1701, 341, -441, -303
14440, -16413, -953, 1694, 338, -440, -299
14450, -16399, -951, 1711, 326, -451, -298
14460, -16435, -951, 1725, 347, -453, -317
14470, -16425, -963, 1740, 374, -477, -332
14480, -16421, -934, 1739, 356, -479, -331
14490, -16406, -931, 1742, 354, -478, -327
14500, -16425, -942, 1767, 343, -461, -315
14510, -16412, -925, 1749, 343, -465, -316
14520, -16422, -944, 1716, 361, -447, -318
14530, -16425, -937, 1732, 364, -451, -320
14540, -16438, -935, 1731, 355, -443, -311
14550, -16420, -951, 1756, 350, -444, -316
14560, -16408, -933, 1734, 354, -468, -322
14570, -16418, -942, 1719, 338, -453, -319
14580, -16414, -947, 1699, 341, -449, -312
14590, -16412, -940, 1720, 362, -461, -329
14600, -16405, -927, 1713, 335, -434, -313
14610, -16413, -949, 1712, 341, -445, -316
14620, -16421, -959, 1716, 345, -452, -323
14630, -16420, -965, 1730, 347, -447, -313
14640, -16427, -957, 1729, 345, -450, -320
14650, -16410, -947, 1703, 344, -465, -326
14660, -16413, -955, 1727, 331, -453, -314
14670, -16406, -940, 1730, 354, -474, -316
14680, -16409, -945, 1729, 346, -467, -319
14690, -16414, -939, 1743, 350, -468, -319
14700, -16418, -945, 1735, 331, -449, -309
14710, -16413, -952, 1742, 334, -451, -312
14720, -16428, -950, 1711, 326, -446, -301
14730, -16433, -929, 1733, 336, -448, -303
14740, -16419, -947, 1737, 352, -463, -322
14750, -16427, -944, 1748, 343, -458, -325
14760, -16418, -938, 1736, 357, -450, -312
14770, -16427, -936, 1739, 356, -439, -317
14780, -16449, -943, 1705, 357, -436, -315
14790, -16405, -943, 1718, 332, -446, -310
14800, -16394, -947, 1748, 363, -454, -300
14810, -16387, -932, 1735, 360, -456, -302
14820, -16436, -951, 1686, 368, -457, -317
14830, -16410, -941, 1681, 350, -473, -326
14840, -16409, -943, 1701, 358, -486, -318
14850, -16390, -961, 1780, 340, -486, -306
14860, -16407, -981, 1790, 352, -436, -317
14870, -16424, -971, 1734, 353, -391, -310
14880, -16442, -946, 1680, 354, -403, -318
14890, -16450, -965, 1685, 355, -467, -331
14900, -16414, -933, 1728, 347, -480, -329
14910, -16414, -889, 1769, 330, -465, -318
14920, -16330, -937, 1732, 327, -452, -312
14930, -16333, -967, 1690, 322, -411, -327
14940, -16360, -975, 1737, 326, -441, -326
14950, -16474, -911, 1844, 340, -445, -333
14960, -16474, -905, 1799, 332, -381, -344
14970, -16435, -936, 1718, 337, -338, -337
14980, -16393, -948, 1684, 331, -418, -305
14990, -16400, -966, 1735, 345, -454, -318
15000, -16398, -970, 1786, 369, -452, -317
15010, -16426, -997, 1703, 373, -381, -305
15020, -16419, -984, 1670, 364, -375, -300
15030, -16419, -985, 1674, 363, -404, -313
15040, -16421, -959, 1694, 350, -413, -304
15050, -16433, -959, 1697, 364, -413, -317
15060, -16422, -962, 1683, 357, -395, -301
15070, -16396, -945, 1679, 354, -382, -299
15080, -16394, -930, 1687, 334, -369, -303
15090, -16378, -924, 1721, 338, -387, -298
15100, -16380, -919, 1755, 356, -395, -311
15110, -16430, -917, 1753, 331, -322, -315
15120, -16459, -925, 1706, 337, -286, -319
15130, -16468, -929, 1650, 374, -286, -326
15140, -16408, -956, 1662, 370, -376, -318
15150, -16399, -954, 1709, 379, -437, -340
15160, -16408, -929, 1748, 378, -424, -341
15170, -16443, -910, 1699, 369, -333, -320
15180, -16432, -929, 1673, 363, -322, -314
15190, -16414, -949, 1650, 372, -378, -323
15200, -16410, -950, 1663, 352, -389, -322
15210, -16406, -952, 1679, 365, -387, -328
15220, -16451, -973, 1638, 370, -377, -333
15230, -16445, -979, 1597, 372, -379, -322
15240, -16437, -964, 1595, 344, -378, -311
15250, -16405, -946, 1620, 336, -389, -315
15260, -16415, -958, 1606, 363, -412, -330
15270, -16410, -960, 1617, 327, -394, -306
15280, -16411, -962, 1642, 343, -400, -302
15290, -16418, -955, 1625, 345, -409, -311
15300, -16437, -960, 1644, 347, -407, -313
15310, -16434, -956, 1644, 337, -417, -325
15320, -16430, -960, 1651, 352, -426, -315
15330, -16410, -942, 1653, 365, -442, -327
15340, -16403, -935, 1688, 350, -443, -324
15350, -16421, -952, 1672, 341, -420, -323
15360, -16429, -937, 1672, 340, -405, -315
15370, -16419, -953, 1638, 332, -393, -310
15380, -16441, -934, 1637, 362, -398, -318
15390, -16453, -956, 1637, 348, -395, -312
15400, -16427, -946, 1633, 369, -399, -318
15410, -16429, -953, 1604, 349, -396, -315
15420, -16415, -961, 1594, 353, -394, -308
15430, -16435, -948, 1607, 383, -427, -327
15440, -16421, -959, 1610, 378, -437, -336
15450, -16425, -969, 1605, 344, -420, -327
15460, -16407, -949, 1612, 355, -424, -331
15470, -16431, -965, 1605, 362, -431, -330
15480, -16426, -949, 1612, 336, -420, -312
15490, -16434, -963, 1634, 336, -427, -329
15500, -16416, -937, 1617, 349, -430, -321
15510, -16425, -958, 1625, 354, -430, -326
15520, -16425, -942, 1631, 351, -431, -323
15530, -16428, -944, 1633, 367, -429, -316
15540, -16426, -961, 1626, 335, -412, -308
15550, -16422, -948, 1613, 345, -411, -312
15560, -16436, -952, 1600, 338, -413, -317
15570, -16427, -938, 1623, 342, -406, -313
15580, -16445, -951, 1628, 357, -414, -321
15590, -16437, -933, 1610, 344, -401, -297
15600, -16425, -942, 1608, 347, -396, -301
15610, -16412, -931, 1607, 366, -422, -315
15620, -16417, -960, 1624, 364, -430, -311
15630, -16411, -932, 1614, 365, -424, -322
15640, -16425, -961, 1598, 358, -406, -315
15650, -16438, -969, 1563, 370, -407, -331
15660, -16422, -958, 1564, 325, -407, -295
15670, -16410, -969, 1570, 340, -413, -300
15680, -16424, -1015, 1592, 342, -423, -303
15690, -16451, -976, 1585, 358, -419, -299
15700, -16436, -955, 1557, 351, -421, -304
15710, -16448, -928, 1585, 360, -478, -325
15720, -16418, -904, 1643, 317, -474, -316
15730, -16402, -880, 1705, 328, -469, -316
15740, -16378, -928, 1643, 340, -358, -326
15750, -16379, -974, 1573, 338, -313, -317
15760, -16409, -963, 1567, 340, -346, -320
15770, -16407, -941, 1622, 342, -410, -329
15780, -16471, -932, 1660, 322, -408, -331
15790, -16442, -926, 1599, 333, -372, -305
15800, -16410, -937, 1547, 339, -364, -302
15810, -16399, -973, 1562, 331, -420, -288
15820, -16410, -992, 1590, 364, -441, -302
15830, -16419, -1004, 1595, 379, -437, -289
15840, -16429, -994, 1582, 380, -391, -301
15850, -16448, -948, 1542, 401, -401, -321
15860, -16465, -918, 1521, 391, -406, -318
15870, -16456, -900, 1507, 365, -416, -313
15880, -16456, -938, 1556, 323, -437, -305
15890, -16408, -957, 1552, 341, -439, -300
15900, -16380, -939, 1589, 347, -451, -302
15910, -16398, -930, 1587, 353, -438, -300
15920, -16408, -919, 1567, 333, -399, -296
15930, -16441, -918, 1556, 324, -334, -292
15940, -16444, -949, 1523, 349, -358, -321
15950, -16433, -955, 1535, 368, -373, -326
15960, -16399, -954, 1562, 364, -440, -312
15970, -16369, -935, 1599, 375, -463, -322
15980, -16422, -924, 1629, 370, -432, -324
15990, -16430, -934, 1568, 319, -363, -307
16000, -16428, -924, 1563, 354, -389, -325
16010, -16412, -966, 1540, 336, -413, -325
16020, -16448, -980, 1557, 350, -430, -331
16030, -16418, -983, 1552, 332, -402, -329
16040, -16428, -970, 1528, 339, -407, -332
16050, -16422, -948, 1528, 351, -420, -337
16060, -16433, -932, 1499, 341, -459, -336
16070, -16420, -941, 1501, 361, -484, -328
16080, -16431, -936, 1522, 360, -492, -326
16090, -16415, -935, 1558, 351, -496, -328
16100, -16434, -969, 1541, 351, -480, -312
16110, -16429, -970, 1550, 336, -480, -312
16120, -16417, -966, 1537, 339, -487, -296
16130, -16417, -979, 1539, 317, -503, -308
16140, -16414, -952, 1591, 330, -511, -312
16150, -16415, -960, 1586, 342, -486, -322
16160, -16419, -971, 1594, 331, -473, -311
16170, -16431, -956, 1557, 338, -471, -313
16180, -16430, -970, 1550, 340, -479, -310
16190, -16432, -942, 1586, 356, -533, -318
16200, -16422, -929, 1594, 348, -518, -298
16210, -16422, -933, 1586, 355, -516, -314
16220, -16438, -933, 1573, 357, -529, -333
16230, -16449, -951, 1582, 351, -518, -312
16240, -16454, -942, 1561, 352, -514, -310
16250, -16438, -952, 1541, 365, -532, -310
16260, -16430, -955, 1551, 355, -553, -305
16270, -16421, -963, 1563, 360, -564, -319
16280, -16464, -936, 1573, 356, -568, -309
16290, -16428, -947, 1574, 353, -548, -293
16300, -16423, -947, 1538, 359, -542, -298
16310, -16419, -945, 1565, 361, -561, -302
16320, -16410, -926, 1617, 374, -565, -287
16330, -16411, -920, 1621, 381, -549, -296
16340, -16429, -915, 1609, 373, -530, -289
16350, -16437, -926, 1632, 346, -539, -293
16360, -16425, -945, 1650, 332, -551, -311
16370, -16436, -944, 1639, 335, -539, -314
16380, -16410, -962, 1653, 326, -520, -305
16390, -16408, -954, 1650, 346, -528, -312
16400, -16424, -947, 1681, 349, -499, -308
16410, -16421, -943, 1651, 356, -482, -337
16420, -16440, -949, 1634, 339, -445, -320
16430, -16439, -960, 1600, 331, -452, -319
16440, -16420, -958, 1628, 324, -439, -299
16450, -16406, -958, 1653, 312, -439, -292
16460, -16404, -981, 1661, 318, -436, -293
16470, -16440, -972, 1615, 351, -431, -309
16480, -16457, -959, 1593, 383, -449, -338
16490, -16466, -939, 1597, 359, -459, -329
16500, -16443, -928, 1629, 353, -480, -320
16510, -16406, -878, 1667, 340, -483, -327
16520, -16368, -889, 1669, 331, -455, -324
16530, -16367, -941, 1622, 324, -406, -322
16540, -16413, -960, 1606, 351, -461, -335
16550, -16453, -937, 1675, 339, -509, -334
16560, -16476, -911, 1705, 338, -498, -332
16570, -16470, -929, 1596, 368, -458, -319
16580, -16423, -951, 1545, 333, -483, -299
16590, -16407, -953, 1590, 349, -552, -299
16600, -16416, -971, 1656, 360, -591, -292
16610, -16418, -970, 1631, 369, -579, -299
16620, -16450, -964, 1612, 369, -550, -307
16630, -16451, -965, 1606, 347, -554, -292
16640, -16419, -943, 1604, 349, -571, -296
16650, -16429, -940, 1616, 351, -589, -311
16660, -16422, -920, 1628, 331, -597, -323
16670, -16415, -920, 1646, 336, -591, -308
16680, -16364, -903, 1647, 327, -604, -311
16690, -16375, -936, 1721, 327, -629, -325
16700, -16376, -899, 1755, 306, -589, -306
16710, -16429, -923, 1736, 337, -547, -329
16720, -16434, -926, 1673, 345, -481, -328
16730, -16432, -966, 1659, 355, -502, -337
16740, -16402, -896, 1653, 365, -515, -334
16750, -16440, -966, 1657, 373, -554, -357
16760, -16417, -914, 1734, 362, -591, -338
16770, -16414, -941, 1730, 372, -577, -318
16780, -16414, -877, 1736, 360, -556, -292
16790, -16407, -896, 1705, 362, -567, -299
16800, -16429, -989, 1690, 352, -573, -297
16810, -16380, -937, 1745, 345, -588, -302
16820, -16396, -952, 1762, 355, -571, -315
16830, -16407, -893, 1735, 360, -536, -311
16840, -16424, -960, 1721, 360, -532, -337
16850, -16384, -928, 1752, 362, -508, -328
16860, -16406, -956, 1763, 350, -463, -306
16870, -16434, -973, 1759, 354, -472, -309
16880, -16436, -958, 1763, 356, -459, -315
16890, -16431, -960, 1754, 352, -469, -323
16900, -16426, -946, 1750, 350, -469, -321
16910, -16431, -927, 1712, 352, -465, -320
16920, -16410, -909, 1725, 337, -464, -304
16930, -16410, -900, 1712, 329, -458, -294
16940, -16416, -889, 1720, 339, -458, -292
16950, -16440, -916, 1711, 333, -460, -299
16960, -16422, -942, 1705, 340, -466, -307
16970, -16422, -945, 1710, 346, -463, -296
16980, -16420, -936, 1730, 353, -485, -307
16990, -16411, -930, 1736, 335, -496, -307
17000, -16413, -942, 1728, 355, -483, -319
17010, -16419, -936, 1739, 339, -481, -315
17020, -16428, -940, 1733, 344, -481, -302
17030, -16424, -935, 1734, 338, -494, -319
17040, -16408, -926, 1731, 348, -495, -314
17050, -16415, -933, 1728, 350, -492, -321
17060, -16408, -939, 1729, 348, -493, -318
17070, -16416, -952, 1762, 351, -497, -325
17080, -16416, -940, 1798, 355, -483, -308
17090, -16416, -948, 1771, 369, -490, -321
17100, -16405, -947, 1753, 348, -473, -307
17110, -16404, -927, 1748, 360, -475, -311
17120, -16429, -936, 1755, 350, -485, -306
17130, -16412, -924, 1743, 369, -487, -315
17140, -16423, -926, 1750, 359, -485, -312
17150, -16436, -922, 1760, 358, -493, -327
17160, -16414, -923, 1758, 353, -487, -318
17170, -16408, -920, 1765, 340, -480, -318
17180, -16430, -919, 1765, 353, -464, -313
17190, -16411, -923, 1756, 352, -470, -321
17200, -16412, -941, 1757, 342, -475, -317
17210, -16412, -919, 1777, 355, -477, -311
17220, -16425, -939, 1722, 365, -473, -304
17230, -16450, -924, 1710, 329, -453, -303
17240, -16430, -941, 1711, 333, -491, -308
17250, -16375, -917, 1749, 320, -498, -297
17260, -16397, -945, 1839, 346, -509, -298
17270, -16406, -940, 1808, 341, -466, -298
17280, -16430, -940, 1769, 351, -451, -321
17290, -16460, -941, 1720, 354, -445, -322
17300, -16442, -932, 1730, 319, -465, -323
17310, -16337, -958, 1684, 336, -440, -313
17320, -16383, -935, 1754, 321, -492, -317
17330, -16425, -935, 1829, 330, -529, -326
17340, -16483, -895, 1817, 349, -462, -319
17350, -16452, -928, 1767, 347, -439, -318
17360, -16422, -937, 1762, 317, -459, -311
17370, -16405, -954, 1797, 322, -515, -312
17380, -16396, -957, 1812, 353, -517, -315
17390, -16403, -949, 1796, 380, -494, -318
17400, -16399, -948, 1760, 372, -466, -309
17410, -16421, -943, 1735, 350, -470, -297
17420, -16422, -944, 1750, 363, -472, -313
17430, -16424, -936, 1755, 353, -463, -313
17440, -16428, -931, 1738, 340, -462, -310
17450, -16404, -906, 1745, 329, -461, -299
17460, -16411, -910, 1771, 331, -474, -306
17470, -16387, -892, 1805, 338, -487, -310
17480, -16384, -889, 1831, 355, -468, -324
17490, -16401, -898, 1820, 352, -441, -315
17500, -16424, -916, 1786, 352, -402, -323
17510, -16453, -931, 1731, 326, -386, -316
17520, -16427, -928, 1731, 344, -435, -320
17530, -16410, -945, 1779, 345, -462, -313
17540, -16414, -911, 1818, 360, -453, -314
17550, -16426, -907, 1795, 336, -411, -317
17560, -16420, -912, 1738, 312, -427, -303
17570, -16403, -921, 1765, 339, -476, -318
17580, -16393, -921, 1780, 343, -497, -325
17590, -16395, -937, 1790, 343, -477, -330
17600, -16443, -950, 1758, 350, -441, -318
17610, -16439, -944, 1724, 348, -446, -315
17620, -16443, -942, 1706, 347, -455, -313
17630, -16409, -934, 1727, 334, -484, -304
17640, -16405, -927, 1746, 356, -494, -313
17650, -16403, -932, 1746, 347, -489, -306
17660, -16408, -926, 1754, 363, -486, -320
17670, -16393, -927, 1773, 353, -482, -316
17680, -16412, -924, 1790, 349, -468, -304
17690, -16431, -918, 1786, 341, -465, -303
17700, -16424, -915, 1798, 334, -469, -312
17710, -16415, -916, 1823, 344, -466, -319
17720, -16406, -936, 1822, 347, -472, -318
17730, -16407, -927, 1821, 348, -453, -319
17740, -16399, -919, 1827, 342, -432, -330
17750, -16402, -923, 1795, 349, -405, -336
17760, -16437, -947, 1754, 354, -399, -322
17770, -16424, -932, 1768, 323, -417, -315
17780, -16437, -932, 1768, 351, -435, -321
17790, -16416, -912, 1775, 347, -447, -318
17800, -16408, -903, 1779, 337, -434, -313
17810, -16419, -919, 1768, 348, -428, -320
17820, -16415, -950, 1718, 355, -416, -331
17830, -16423, -946, 1689, 350, -430, -320
17840, -16443, -947, 1704, 334, -448, -299
17850, -16410, -946, 1748, 333, -482, -311
17860, -16414, -931, 1747, 331, -487, -312
17870, -16409, -921, 1768, 335, -472, -316
17880, -16426, -913, 1778, 335, -465, -309
17890, -16425, -916, 1765, 353, -483, -324
17900, -16416, -893, 1779, 339, -487, -329
17910, -16413, -889, 1776, 345, -476, -322
17920, -16408, -914, 1809, 334, -490, -315
17930, -16414, -915, 1806, 338, -476, -329
17940, -16416, -916, 1809, 344, -460, -327
17950, -16414, -920, 1790, 337, -446, -326
17960, -16417, -912, 1790, 341, -435, -325
17970, -16418, -931, 1793, 338, -428, -332
17980, -16422, -932, 1791, 342, -435, -331
17990, -16439, -935, 1761, 333, -431, -314
18000, -16434, -941, 1741, 334, -429, -305
18010, -16418, -950, 1744, 351, -456, -319
18020, -16405, -944, 1736, 363, -462, -302
18030, -16412, -946, 1734, 340, -458, -303
18040, -16417, -964, 1716, 339, -453, -295
18050, -16408, -939, 1725, 325, -490, -299
18060, -16386, -936, 1780, 323, -489, -294
18070, -16372, -938, 1809, 337, -513, -297
18080, -16404, -934, 1854, 350, -496, -313
18090, -16419, -928, 1767, 370, -442, -332
18100, -16460, -913, 1734, 345, -422, -319
18110, -16463, -940, 1764, 359, -461, -348
18120, -16417, -898, 1806, 325, -474, -322
18130, -16417, -873, 1811, 331, -457, -323
18140, -16379, -868, 1782, 334, -447, -322
18150, -16362, -943, 1725, 345, -420, -320
18160, -16407, -916, 1795, 324, -480, -317
18170, -16423, -905, 1850, 338, -513, -333
18180, -16468, -883, 1855, 333, -476, -335
18190, -16442, -903, 1783, 346, -423, -331
18200, -16402, -936, 1753, 352, -471, -321
18210, -16385, -950, 1785, 351, -502, -315
18220, -16406, -957, 1813, 351, -512, -318
18230, -16421, -985, 1779, 377, -463, -317
18240, -16412, -974, 1745, 360, -422, -302
18250, -16428, -967, 1730, 354, -435, -301
18260, -16405, -934, 1726, 333, -451, -310
18270, -16406, -932, 1739, 350, -464, -309
18280, -16397, -893, 1799, 343, -478, -328
18290, -16387, -896, 1819, 351, -458, -331
18300, -16390, -883, 1866, 348, -451, -330
18310, -16432, -906, 1817, 350, -374, -321
18320, -16466, -890, 1751, 335, -350, -322
18330, -16450, -910, 1724, 341, -366, -325
18340, -16393, -920, 1782, 354, -466, -329
18350, -16407, -912, 1817, 351, -465, -319
18360, -16409, -885, 1845, 352, -426, -316
18370, -16431, -874, 1789, 353, -398, -309
18380, -16423, -901, 1743, 322, -391, -298
18390, -16408, -910, 1766, 337, -429, -307
18400, -16399, -926, 1797, 353, -454, -333
18410, -16415, -946, 1759, 348, -426, -323
18420, -16424, -953, 1738, 326, -397, -316
18430, -16433, -968, 1704, 333, -417, -332
18440, -16414, -972, 1719, 355, -429, -325
18450, -16407, -945, 1735, 354, -431, -331
18460, -16416, -971, 1732, 353, -417, -326
18470, -16402, -940, 1752, 356, -412, -319
18480, -16411, -934, 1762, 348, -389, -308
18490, -16411, -943, 1739, 327, -408, -308
18500, -16422, -960, 1763, 337, -391, -317
18510, -16424, -949, 1773, 333, -404, -314
18520, -16426, -948, 1772, 364, -418, -329
18530, -16421, -918, 1789, 341, -413, -321
18540, -16401, -911, 1787, 339, -398, -323
18550, -16410, -912, 1782, 355, -378, -317
18560, -16411, -917, 1760, 351, -364, -310
18570, -16430, -918, 1754, 344, -341, -300
18580, -16425, -917, 1746, 350, -338, -304
18590, -16421, -897, 1726, 373, -348, -314
18600, -16424, -916, 1715, 369, -344, -294
18610, -16410, -915, 1704, 368, -355, -310
18620, -16391, -918, 1692, 369, -357, -317
18630, -16408, -911, 1715, 362, -357, -316
18640, -16409, -943, 1700, 393, -364, -328
18650, -16414, -931, 1689, 374, -353, -314
18660, -16417, -948, 1683, 355, -345, -320
18670, -16414, -930, 1683, 360, -352, -324
18680, -16416, -948, 1681, 361, -349, -309
18690, -16414, -926, 1708, 366, -366, -320
18700, -16417, -936, 1706, 351, -369, -315
18710, -16412, -939, 1694, 357, -364, -330
18720, -16413, -924, 1694, 355, -345, -316
18730, -16433, -942, 1685, 372, -355, -314
18740, -16437, -943, 1693, 363, -369, -318
18750, -16433, -953, 1687, 361, -346, -312
18760, -16420, -932, 1696, 364, -347, -316
18770, -16429, -931, 1689, 359, -343, -310
18780, -16422, -927, 1670, 360, -360, -319
18790, -16430, -934, 1670, 370, -358, -314
18800, -16419, -910, 1654, 355, -354, -317
18810, -16434, -910, 1674, 349, -350, -321
18820, -16415, -910, 1665, 359, -356, -320
18830, -16450, -934, 1663, 351, -345, -304
18840, -16419, -932, 1659, 342, -348, -305
18850, -16414, -940, 1633, 346, -350, -307
18860, -16406, -913, 1642, 347, -353, -303
18870, -16440, -919, 1635, 359, -331, -300
18880, -16439, -924, 1594, 348, -341, -312
18890, -16424, -922, 1615, 338, -360, -307
18900, -16399, -956, 1629, 366, -393, -321
18910, -16415, -968, 1640, 358, -379, -301
18920, -16424, -958, 1643, 359, -373, -319
18930, -16463, -940, 1590, 373, -398, -330
18940, -16455, -936, 1589, 356, -401, -327
18950, -16429, -914, 1620, 360, -438, -331
18960, -16396, -869, 1720, 329, -428, -319
18970, -16390, -891, 1688, 331, -390, -320
18980, -16361, -961, 1605, 359, -342, -335
18990, -16429, -948, 1611, 340, -371, -332
19000, -16462, -921, 1655, 364, -417, -348
19010, -16482, -891, 1703, 343, -413, -349
19020, -16446, -920, 1598, 330, -330, -317
19030, -16411, -952, 1547, 338, -368, -302
19040, -16413, -973, 1554, 356, -404, -306
19050, -16420, -986, 1596, 352, -416, -288
19060, -16422, -972, 1615, 378, -402, -298
19070, -16423, -970, 1581, 370, -386, -302
19080, -16426, -921, 1535, 362, -392, -311
19090, -16433, -919, 1531, 378, -412, -316
19100, -16447, -922, 1552, 367, -432, -321
19110, -16430, -948, 1551, 354, -452, -321
19120, -16407, -913, 1587, 343, -442, -318
19130, -16414, -924, 1610, 351, -442, -327
19140, -16397, -906, 1603, 343, -428, -315
19150, -16442, -934, 1630, 338, -413, -304
19160, -16443, -922, 1607, 325, -388, -306
19170, -16469, -916, 1591, 343, -384, -329
19180, -16440, -941, 1556, 351, -429, -326
19190, -16415, -954, 1581, 349, -471, -320
19200, -16417, -940, 1609, 368, -506, -327
19210, -16424, -948, 1579, 344, -509, -324
19220, -16408, -951, 1592, 337, -520, -325
19230, -16420, -974, 1596, 349, -509, -323
19240, -16435, -973, 1590, 350, -495, -332
19250, -16466, -973, 1548, 348, -505, -337
19260, -16428, -941, 1543, 338, -516, -325
19270, -16429, -935, 1561, 360, -526, -326
19280, -16423, -938, 1566, 354, -527, -329
19290, -16412, -934, 1600, 341, -521, -314
19300, -16431, -932, 1627, 349, -524, -321
19310, -16427, -932, 1652, 324, -510, -311
19320, -16421, -947, 1606, 329, -507, -325
19330, -16426, -940, 1616, 335, -523, -325
19340, -16440, -934, 1613, 348, -551, -326
19350, -16418, -934, 1640, 335, -537, -317
19360, -16426, -929, 1651, 329, -543, -313
19370, -16435, -941, 1662, 332, -537, -301
19380, -16434, -929, 1630, 334, -533, -307
19390, -16427, -934, 1642, 351, -539, -322
19400, -16424, -930, 1630, 310, -524, -312
19410, -16433, -919, 1630, 342, -518, -316
19420, -16444, -912, 1639, 338, -522, -311
19430, -16423, -936, 1647, 322, -546, -316
19440, -16419, -932, 1638, 346, -556, -325
19450, -16419, -961, 1640, 350, -538, -318
19460, -16419, -954, 1634, 356, -535, -317
19470, -16414, -946, 1641, 341, -518, -309
19480, -16419, -949, 1651, 345, -515, -315
19490, -16416, -945, 1637, 360, -522, -327
19500, -16400, -933, 1650, 352, -525, -312
19510, -16412, -934, 1687, 334, -528, -311
19520, -16409, -930, 1674, 338, -531, -308
19530, -16409, -932, 1693, 328, -532, -318
19540, -16449, -927, 1697, 337, -522, -311
19550, -16425, -938, 1719, 338, -517, -320
19560, -16427, -924, 1705, 342, -525, -316
19570, -16423, -947, 1704, 335, -519, -308
19580, -16410, -938, 1680, 332, -522, -309
19590, -16436, -943, 1677, 365, -531, -322
19600, -16415, -947, 1672, 333, -512, -297
19610, -16416, -940, 1666, 348, -524, -298
19620, -16442, -914, 1669, 346, -520, -314
19630, -16431, -920, 1641, 339, -505, -307
19640, -16422, -916, 1636, 349, -526, -308
19650, -16407, -924, 1702, 359, -564, -306
19660, -16406, -953, 1734, 347, -557, -303
19670, -16411, -965, 1725, 353, -512, -313
19680, -16445, -934, 1668, 363, -511, -325
19690, -16456, -930, 1688, 340, -529, -332
19700, -16430, -916, 1725, 328, -538, -321
19710, -16425, -903, 1764, 320, -531, -322
19720, -16364, -905, 1719, 312, -493, -338
19730, -16348, -941, 1663, 326, -486, -343
19740, -16380, -945, 1694, 329, -508, -339
19750, -16446, -916, 1806, 314, -561, -328
19760, -16462, -898, 1817, 322, -548, -339
19770, -16455, -909, 1769, 316, -491, -320
19780, -16414, -931, 1708, 328, -523, -317
19790, -16404, -935, 1727, 325, -558, -309
19800, -16403, -951, 1722, 336, -562, -314
19810, -16421, -977, 1758, 347, -517, -311
19820, -16413, -957, 1738, 343, -480, -301
19830, -16416, -950, 1707, 342, -480, -311
19840, -16413, -942, 1691, 342, -489, -310
19850, -16421, -956, 1717, 335, -495, -308
19860, -16425, -962, 1725, 329, -498, -320
19870, -16425, -963, 1717, 342, -497, -322
19880, -16405, -925, 1746, 332, -500, -314
19890, -16391, -921, 1750, 328, -499, -308
19900, -16399, -899, 1795, 328, -491, -305
19910, -16413, -909, 1788, 339, -442, -313
19920, -16442, -887, 1758, 348, -421, -321
19930, -16424, -945, 1701, 350, -438, -335
19940, -16416, -948, 1717, 377, -490, -333
19950, -16408, -932, 1778, 371, -511, -327
19960, -16410, -910, 1792, 354, -499, -322
19970, -16430, -896, 1756, 324, -438, -310
19980, -16428, -910, 1732, 331, -449, -310
19990, -16408, -912, 1733, 333, -476, -320
20000, -16397, -938, 1786, 343, -508, -326
20010, -16406, -949, 1774, 348, -491, -324
20020, -16427, -953, 1756, 344, -462, -326
20030, -16445, -955, 1738, 346, -449, -336
20040, -16433, -962, 1723, 342, -457, -318
20050, -16410, -938, 1710, 338, -476, -321
20060, -16406, -934, 1734, 352, -476, -321
20070, -16401, -934, 1746, 334, -473, -313
20080, -16409, -925, 1744, 347, -462, -310
20090, -16408, -933, 1750, 341, -456, -317
20100, -16414, -943, 1772, 342, -464, -313
20110, -16414, -929, 1753, 354, -477, -323
20120, -16408, -922, 1750, 349, -483, -322
20130, -16418, -934, 1773, 345, -486, -314
20140, -16398, -922, 1774, 339, -473, -309
20150, -16412, -922, 1785, 341, -463, -310
20160, -16438, -915, 1768, 350, -459, -310
20170, -16418, -912, 1770, 333, -459, -300
20180, -16421, -918, 1770, 347, -467, -307
20190, -16413, -921, 1780, 360, -470, -319
20200, -16414, -925, 1754, 333, -439, -299
20210, -16412, -926, 1737, 345, -458, -314
20220, -16412, -925, 1754, 344, -460, -313
20230, -16396, -921, 1730, 340, -448, -313
20240, -16421, -939, 1768, 348, -457, -317
20250, -16404, -934, 1748, 354, -473, -330
20260, -16404, -938, 1774, 356, -472, -329
20270, -16419, -938, 1750, 340, -469, -328
20280, -16413, -932, 1761, 353, -460, -312
20290, -16399, -932, 1751, 359, -462, -314
20300, -16417, -929, 1740, 345, -470, -317
20310, -16424, -921, 1765, 362, -474, -327
20320, -16430, -940, 1770, 332, -456, -311
20330, -16405, -923, 1776, 347, -466, -313
20340, -16429, -944, 1775, 358, -470, -310
20350, -16422, -932, 1767, 338, -479, -317
20360, -16413, -918, 1781, 340, -472, -318
20370, -16422, -923, 1776, 321, -466, -311
20380, -16413, -905, 1781, 348, -470, -315
20390, -16422, -931, 1760, 339, -470, -310
20400, -16407, -920, 1777, 351, -464, -310
20410, -16404, -915, 1759, 361, -471, -316
20420, -16426, -942, 1762, 353, -457, -311
20430, -16431, -942, 1714, 348, -462, -317
20440, -16418, -942, 1737, 342, -488, -315
20450, -16406, -928, 1767, 340, -509, -321
20460, -16394, -958, 1844, 347, -468, -314
20470, -16419, -960, 1792, 355, -438, -316
20480, -16448, -931, 1739, 366, -427, -322
20490, -16456, -946, 1726, 354, -471, -338
20500, -16438, -923, 1771, 362, -494, -334
20510, -16424, -897, 1784, 336, -485, -323
20520, -16356, -923, 1765, 320, -440, -319
20530, -16342, -954, 1695, 332, -417, -323
20540, -16381, -951, 1733, 333, -463, -329
20550, -16417, -941, 1785, 330, -508, -329
20560, -16468, -892, 1835, 319, -470, -316
20570, -16455, -893, 1795, 334, -438, -324
20580, -16433, -920, 1742, 347, -442, -328
20590, -16404, -947, 1776, 354, -522, -332
20600, -16404, -965, 1792, 363, -520, -328
20610, -16411, -973, 1818, 366, -500, -318
20620, -16424, -967, 1759, 340, -450, -303
20630, -16426, -965, 1737, 355, -457, -312
20640, -16411, -947, 1735, 345, -457, -308
20650, -16414, -949, 1753, 359, -446, -307
20660, -16412, -955, 1733, 357, -462, -316
20670, -16410, -929, 1739, 353, -456, -315
20680, -16404, -915, 1758, 333, -453, -317
20690, -16404, -890, 1770, 315, -456, -303
20700, -16404, -884, 1803, 326, -453, -303
20710, -16409, -901, 1829, 336, -404, -314
20720, -16455, -895, 1783, 340, -379, -311
20730, -16451, -899, 1732, 340, -363, -308
20740, -16391, -928, 1757, 351, -456, -325
20750, -16391, -933, 1808, 357, -481, -327
20760, -16406, -908, 1853, 354, -458, -319
20770, -16429, -897, 1790, 351, -423, -315
20780, -16413, -913, 1740, 344, -408, -315
20790, -16410, -924, 1754, 333, -431, -306
20800, -16386, -936, 1769, 329, -466, -317
20810, -16405, -944, 1782, 352, -457, -327
20820, -16428, -974, 1767, 358, -437, -332
20830, -16427, -962, 1754, 361, -436, -327
20840, -16440, -977, 1728, 340, -444, -319
20850, -16415, -956, 1723, 360, -462, -330
20860, -16401, -949, 1747, 349, -484, -326
20870, -16393, -935, 1760, 347, -466, -318
20880, -16410, -937, 1771, 350, -457, -308
20890, -16412, -932, 1765, 335, -444, -308
20900, -16415, -951, 1778, 348, -468, -316
20910, -16424, -940, 1774, 351, -479, -334
20920, -16421, -943, 1777, 361, -479, -327
20930, -16435, -938, 1775, 357, -467, -321
20940, -16404, -916, 1792, 329, -465, -309
20950, -16394, -907, 1812, 342, -470, -316
20960, -16406, -913, 1803, 346, -461, -320
20970, -16425, -926, 1781, 332, -440, -324
20980, -16436, -918, 1770, 337, -424, -316
20990, -16442, -911, 1769, 336, -424, -312
21000, -16425, -933, 1777, 344, -436, -307
21010, -16417, -930, 1784, 338, -430, -304
21020, -16410, -921, 1780, 346, -432, -305
21030, -16414, -937, 1784, 348, -440, -313
21040, -16413, -935, 1763, 353, -443, -333
21050, -16410, -942, 1746, 340, -426, -312
21060, -16421, -948, 1742, 342, -431, -316
21070, -16414, -945, 1744, 354, -444, -340
21080, -16427, -966, 1774, 330, -434, -322
21090, -16416, -942, 1757, 345, -438, -314
21100, -16419, -944, 1772, 349, -434, -327
21110, -16413, -930, 1771, 337, -426, -304
21120, -16404, -935, 1784, 331, -410, -304
21130, -16425, -938, 1772, 342, -405, -311
21140, -16419, -937, 1760, 346, -415, -311
21150, -16422, -941, 1765, 350, -409, -312
21160, -16419, -930, 1769, 358, -391, -307
21170, -16422, -935, 1769, 342, -380, -305
21180, -16429, -921, 1752, 354, -387, -321
21190, -16412, -915, 1760, 354, -381, -326
21200, -16418, -924, 1746, 357, -379, -325
21210, -16413, -924, 1744, 363, -375, -320
21220, -16440, -910, 1745, 353, -368, -310
21230, -16437, -922, 1736, 349, -360, -310
21240, -16413, -940, 1722, 355, -382, -323
21250, -16404, -921, 1719, 364, -374, -317
21260, -16390, -922, 1724, 375, -383, -310
21270, -16417, -935, 1716, 356, -374, -310
21280, -16442, -938, 1702, 334, -356, -310
21290, -16432, -937, 1692, 347, -368, -315
21300, -16400, -935, 1736, 351, -393, -319
21310, -16384, -949, 1750, 342, -374, -302
21320, -16413, -968, 1756, 351, -358, -307
21330, -16450, -933, 1672, 367, -319, -316
21340, -16465, -927, 1645, 373, -344, -322
21350, -16458, -938, 1664, 390, -394, -337
21360, -16424, -899, 1740, 348, -404, -320
21370, -16410, -891, 1747, 335, -397, -338
21380, -16375, -917, 1693, 339, -361, -329
21390, -16404, -959, 1674, 352, -349, -311
21400, -16420, -949, 1722, 336, -393, -317
21410, -16443, -897, 1772, 339, -394, -329
21420, -16448, -877, 1774, 354, -364, -333
21430, -16430, -925, 1637, 349, -284, -318
21440, -16413, -941, 1612, 347, -318, -316
21450, -16411, -960, 1626, 359, -365, -313
21460, -16403, -978, 1691, 367, -411, -316
21470, -16408, -975, 1690, 345, -375, -299
21480, -16429, -962, 1656, 387, -357, -317
21490, -16428, -942, 1607, 384, -342, -314
21500, -16430, -928, 1604, 350, -354, -312
21510, -16432, -953, 1617, 361, -388, -321
21520, -16433, -937, 1648, 358, -407, -322
21530, -16412, -939, 1638, 352, -403, -320
21540, -16404, -918, 1652, 348, -378, -311
21550, -16401, -909, 1654, 335, -372, -308
21560, -16410, -918, 1687, 353, -379, -321
21570, -16423, -920, 1668, 352, -341, -311
21580, -16453, -917, 1643, 367, -321, -320
21590, -16433, -932, 1592, 382, -333, -329
21600, -16401, -936, 1613, 357, -359, -326
21610, -16407, -927, 1641, 365, -401, -339
21620, -16418, -894, 1700, 346, -394, -327
21630, -16435, -878, 1678, 359, -347, -321
21640, -16437, -894, 1626, 352, -334, -321
21650, -16409, -926, 1622, 335, -353, -320
21660, -16414, -946, 1608, 357, -373, -316
21670, -16414, -949, 1601, 358, -382, -342
21680, -16440, -963, 1578, 359, -353, -321
21690, -16435, -955, 1557, 357, -340, -311
21700, -16435, -967, 1552, 353, -337, -324
21710, -16420, -951, 1531, 364, -365, -317
21720, -16431, -949, 1570, 373, -386, -334
21730, -16421, -950, 1564, 357, -390, -326
21740, -16407, -933, 1586, 363, -392, -313
21750, -16425, -951, 1574, 338, -380, -313
21760, -16405, -943, 1574, 351, -394, -320
21770, -16403, -942, 1590, 350, -407, -321
21780, -16426, -950, 1596, 358, -397, -318
21790, -16429, -948, 1602, 340, -385, -313
21800, -16441, -933, 1589, 360, -397, -322
21810, -16426, -937, 1595, 362, -400, -322
21820, -16452, -915, 1585, 336, -388, -322
21830, -16423, -930, 1589, 343, -398, -318
21840, -16431, -930, 1583, 340, -411, -307
21850, -16432, -923, 1584, 346, -401, -302
21860, -16446, -928, 1561, 342, -408, -300
21870, -16417, -935, 1554, 344, -415, -315
21880, -16434, -940, 1548, 359, -425, -308
21890, -16420, -943, 1558, 355, -419, -305
21900, -16430, -950, 1505, 349, -422, -305
21910, -16435, -948, 1536, 355, -456, -318
21920, -16442, -937, 1548, 356, -463, -320
21930, -16413, -942, 1516, 348, -474, -321
21940, -16424, -940, 1536, 354, -499, -325
21950, -16429, -942, 1547, 344, -507, -318
21960, -16444, -934, 1572, 347, -521, -327
21970, -16422, -958, 1575, 346, -511, -308
21980, -16421, -944, 1579, 341, -535, -327
21990, -16417, -946, 1591, 334, -520, -314
22000, -16441, -937, 1602, 338, -503, -309
22010, -16422, -933, 1625, 325, -503, -313
22020, -16447, -916, 1621, 349, -503, -320
22030, -16451, -936, 1623, 351, -484, -309
22040, -16441, -923, 1603, 345, -509, -330
22050, -16435, -945, 1585, 348, -491, -324
22060, -16415, -926, 1591, 347, -488, -323
22070, -16433, -941, 1584, 320, -451, -300
22080, -16450, -953, 1561, 344, -465, -314
22090, -16420, -947, 1580, 343, -477, -304
22100, -16413, -960, 1595, 344, -468, -306
22110, -16408, -978, 1585, 347, -480, -303
22120, -16442, -980, 1576, 347, -475, -309
22130, -16469, -948, 1528, 345, -506, -311
22140, -16463, -926, 1557, 350, -549, -318
22150, -16434, -903, 1610, 333, -579, -322
22160, -16402, -889, 1670, 330, -537, -323
22170, -16393, -899, 1666, 316, -510, -324
22180, -16378, -928, 1623, 343, -488, -339
22190, -16415, -967, 1576, 342, -468, -327
22200, -16442, -935, 1655, 323, -524, -331
22210, -16462, -915, 1679, 305, -528, -332
22220, -16496, -902, 1656, 326, -517, -332
22230, -16418, -956, 1574, 315, -516, -309
22240, -16404, -965, 1602, 311, -552, -297
22250, -16407, -955, 1619, 339, -577, -310
22260, -16406, -976, 1651, 343, -572, -310
22270, -16434, -971, 1642, 341, -506, -289
22280, -16421, -951, 1601, 363, -506, -303
22290, -16417, -932, 1585, 344, -504, -309
22300, -16444, -921, 1612, 349, -533, -318
22310, -16426, -924, 1622, 347, -538, -320
22320, -16419, -954, 1620, 347, -535, -325
22330, -16398, -932, 1636, 348, -532, -322
22340, -16380, -921, 1653, 330, -527, -314
22350, -16422, -923, 1684, 307, -487, -307
22360, -16428, -927, 1690, 325, -465, -319
22370, -16454, -908, 1660, 334, -453, -322
22380, -16453, -918, 1626, 341, -455, -330
22390, -16418, -954, 1626, 352, -488, -318
22400, -16409, -936, 1677, 365, -518, -328
22410, -16413, -917, 1703, 368, -526, -328
22420, -16444, -914, 1697, 349, -490, -323
22430, -16445, -912, 1675, 320, -460, -304
22440, -16442, -944, 1648, 336, -475, -315
22450, -16410, -966, 1657, 348, -491, -317
22460, -16413, -963, 1664, 351, -508, -328
22470, -16419, -953, 1670, 363, -501, -327
22480, -16435, -962, 1630, 348, -488, -323
22490, -16413, -934, 1600, 345, -512, -321
22500, -16418, -939, 1590, 336, -510, -319
22510, -16408, -932, 1624, 332, -505, -311
22520, -16414, -932, 1663, 344, -518, -310
22530, -16419, -935, 1696, 335, -524, -308
22540, -16414, -943, 1672, 343, -509, -319
22550, -16438, -948, 1662, 343, -513, -321
22560, -16415, -939, 1687, 318, -503, -299
22570, -16420, -926, 1697, 314, -510, -304
22580, -16442, -922, 1710, 331, -543, -329
22590, -16416, -922, 1716, 304, -513, -301
22600, -16425, -918, 1721, 345, -517, -312
22610, -16443, -934, 1704, 345, -504, -322
22620, -16421, -933, 1696, 335, -504, -312
22630, -16422, -933, 1704, 338, -493, -308
22640, -16408, -935, 1686, 355, -507, -308
22650, -16419, -929, 1707, 357, -505, -307
22660, -16429, -928, 1700, 337, -500, -312
22670, -16407, -921, 1704, 351, -500, -314
22680, -16412, -936, 1695, 340, -490, -322
22690, -16410, -925, 1678, 325, -482, -304
22700, -16415, -942, 1684, 318, -493, -303
22710, -16416, -945, 1682, 342, -503, -302
22720, -16411, -935, 1682, 343, -512, -314
22730, -16411, -927, 1683, 327, -499, -298
22740, -16420, -944, 1683, 326, -496, -311
22750, -16421, -939, 1708, 328, -505, -309
22760, -16421, -952, 1730, 335, -520, -317
22770, -16412, -936, 1715, 342, -504, -312
22780, -16422, -947, 1713, 331, -506, -316
22790, -16421, -944, 1725, 335, -499, -315
22800, -16411, -927, 1727, 344, -502, -322
22810, -16428, -931, 1725, 344, -501, -322
22820, -16426, -920, 1735, 336, -486, -322
22830, -16407, -905, 1731, 350, -496, -316
22840, -16407, -919, 1744, 348, -500, -310
22850, -16418, -935, 1737, 346, -485, -300
22860, -16412, -925, 1726, 360, -488, -315
22870, -16427, -944, 1696, 358, -478, -311
22880, -16417, -936, 1682, 340, -491, -326
22890, -16417, -927, 1720, 346, -505, -324
22900, -16383, -931, 1743, 332, -509, -299
22910, -16415, -965, 1762, 318, -497, -315
22920, -16417, -945, 1749, 363, -481, -327
22930, -16424, -922, 1714, 351, -457, -323
22940, -16447, -934, 1713, 363, -469, -328
22950, -16440, -912, 1728, 339, -501, -332
22960, -16426, -898, 1756, 319, -481, -320
22970, -16406, -881, 1754, 325, -476, -330
22980, -16346, -937, 1675, 363, -453, -324
22990, -16386, -947, 1704, 345, -489, -336
23000, -16407, -921, 1766, 327, -537, -343
23010, -16423, -928, 1705, 318, -440, -320
23020, -16391, -969, 1755, 323, -553, -309
23030, -16391, -969, 1802, 339, -556, -306
23040, -16418, -981, 1781, 354, -531, -317
23050, -16405, -966, 1724, 363, -462, -286
23060, -16416, -948, 1714, 344, -482, -315
23070, -16383, -939, 1723, 338, -490, -319
23080, -16410, -931, 1730, 318, -468, -307
23090, -16426, -942, 1738, 343, -464, -303
23100, -16419, -931, 1752, 353, -462, -307
23110, -16415, -929, 1761, 343, -463, -305
23120, -16397, -898, 1762, 334, -471, -322
23130, -16392, -893, 1782, 338, -474, -324
23140, -16380, -888, 1806, 338, -466, -315
23150, -16420, -895, 1779, 333, -398, -318
23160, -16442, -911, 1741, 333, -362, -314
23170, -16431, -948, 1715, 344, -402, -323
23180, -16417, -937, 1739, 358, -455, -332
23190, -16393, -930, 1791, 348, -479, -332
23200, -16437, -891, 1791, 345, -450, -317
23210, -16439, -895, 1747, 335, -422, -307
23220, -16402, -925, 1742, 348, -469, -316
23230, -16403, -935, 1753, 342, -482, -314
23240, -16404, -932, 1770, 341, -479, -320
23250, -16417, -954, 1771, 350, -453, -319
23260, -16426, -967, 1741, 359, -453, -327
23270, -16425, -964, 1710, 358, -460, -329
23280, -16418, -950, 1710, 348, -457, -312
23290, -16417, -948, 1714, 364, -485, -330
23300, -16408, -943, 1748, 364, -482, -329
23310, -16406, -955, 1749, 353, -476, -319
23320, -16404, -927, 1752, 335, -460, -305
23330, -16406, -930, 1746, 323, -448, -302
23340, -16415, -935, 1747, 341, -457, -318
23350, -16424, -940, 1754, 327, -458, -310
23360, -16427, -933, 1763, 332, -472, -308
23370, -16428, -917, 1786, 330, -473, -309
23380, -16412, -909, 1766, 337, -454, -306
23390, -16400, -914, 1777, 333, -461, -300
23400, -16420, -928, 1800, 338, -469, -313
23410, -16428, -925, 1767, 337, -443, -305
23420, -16426, -914, 1759, 356, -448, -304
23430, -16405, -896, 1775, 359, -441, -309
23440, -16413, -926, 1759, 359, -458, -313
23450, -16409, -922, 1747, 374, -476, -324
23460, -16418, -942, 1752, 350, -456, -306
23470, -16406, -917, 1765, 335, -452, -316
23480, -16413, -944, 1748, 355, -456, -323
23490, -16415, -948, 1737, 328, -444, -309
23500, -16427, -946, 1722, 340, -446, -319
23510, -16418, -945, 1744, 340, -446, -297
23520, -16407, -936, 1756, 336, -462, -295
23530, -16409, -939, 1755, 334, -469, -328
23540, -16406, -941, 1756, 349, -468, -327
23550, -16415, -932, 1766, 334, -459, -309
23560, -16412, -932, 1783, 342, -458, -323
23570, -16415, -940, 1767, 357, -453, -320
23580, -16432, -934, 1762, 322, -440, -309
23590, -16436, -940, 1729, 340, -450, -312
23600, -16423, -935, 1765, 370, -463, -321
23610, -16422, -949, 1767, 354, -458, -326
23620, -16408, -911, 1757, 356, -451, -320
23630, -16401, -908, 1751, 342, -429, -303
23640, -16422, -920, 1763, 355, -425, -303
23650, -16409, -903, 1765, 347, -425, -305
23660, -16397, -933, 1750, 349, -439, -305
23670, -16426, -946, 1735, 357, -430, -319
23680, -16442, -945, 1719, 348, -431, -327
23690, -16425, -952, 1694, 350, -456, -321
23700, -16379, -917, 1778, 324, -473, -298
23710, -16383, -937, 1811, 328, -460, -299
23720, -16417, -953, 1774, 350, -381, -306
23730, -16447, -942, 1719, 363, -351, -308
23740, -16452, -936, 1682, 359, -366, -316
23750, -16417, -937, 1729, 344, -446, -337
23760, -16431, -909, 1776, 332, -430, -319
23770, -16422, -901, 1799, 342, -409, -320
23780, -16395, -883, 1735, 347, -386, -326
23790, -16374, -952, 1698, 345, -374, -318
23800, -16406, -945, 1750, 352, -428, -344
23810, -16436, -927, 1824, 337, -444, -343
23820, -16454, -906, 1812, 351, -362, -337
23830, -16448, -906, 1727, 318, -324, -313
23840, -16404, -935, 1706, 341, -354, -315
23850, -16406, -964, 1752, 385, -421, -316
23860, -16401, -950, 1757, 377, -408, -309
23870, -16412, -967, 1753, 368, -370, -298
23880, -16411, -950, 1679, 381, -353, -323
23890, -16415, -940, 1657, 406, -370, -317
23900, -16418, -942, 1650, 379, -384, -316
23910, -16436, -942, 1653, 352, -386, -315
23920, -16419, -930, 1684, 379, -398, -305
23930, -16410, -929, 1679, 362, -389, -306
23940, -16394, -903, 1695, 351, -380, -315
23950, -16405, -905, 1729, 344, -376, -308
23960, -16454, -908, 1699, 353, -286, -310
23970, -16454, -932, 1646, 367, -298, -324
23980, -16402, -937, 1671, 389, -399, -338
23990, -16407, -932, 1719, 376, -414, -330
24000, -16427, -901, 1757, 353, -402, -315
24010, -16438, -906, 1712, 365, -341, -325
24020, -16440, -902, 1664, 363, -327, -317
24030, -16416, -944, 1638, 361, -350, -319
24040, -16411, -946, 1671, 371, -396, -332
24050, -16424, -973, 1678, 360, -367, -312
24060, -16414, -955, 1674, 346, -351, -316
24070, -16432, -971, 1622, 354, -335, -317
24080, -16425, -978, 1600, 371, -348, -316
24090, -16410, -949, 1617, 359, -351, -325
24100, -16408, -928, 1635, 364, -356, -316
24110, -16417, -944, 1631, 365, -364, -321
24120, -16413, -934, 1648, 363, -357, -315
24130, -16419, -948, 1611, 355, -354, -309
24140, -16440, -935, 1635, 352, -380, -317
24150, -16431, -945, 1632, 362, -393, -319
24160, -16446, -944, 1646, 359, -402, -317
24170, -16410, -945, 1630, 370, -417, -329
24180, -16422, -929, 1650, 342, -385, -302
24190, -16436, -915, 1639, 357, -370, -315
24200, -16414, -915, 1624, 356, -378, -310
24210, -16423, -922, 1615, 346, -382, -320
24220, -16406, -910, 1623, 348, -386, -310
24230, -16433, -913, 1635, 352, -367, -304
24240, -16426, -929, 1625, 376, -383, -324
24250, -16428, -913, 1594, 358, -375, -326
24260, -16420, -938, 1582, 366, -377, -321
24270, -16417, -951, 1579, 358, -374, -310
24280, -16419, -936, 1595, 367, -392, -330
24290, -16454, -945, 1580, 358, -393, -325
24300, -16428, -945, 1585, 366, -391, -322
24310, -16428, -954, 1566, 346, -382, -313
24320, -16417, -941, 1585, 352, -376, -317
24330, -16424, -947, 1569, 372, -402, -330
24340, -16422, -945, 1564, 351, -381, -313
24350, -16426, -940, 1581, 327, -389, -305
24360, -16423, -936, 1597, 340, -392, -308
24370, -16419, -955, 1604, 368, -421, -330
24380, -16423, -946, 1602, 351, -391, -314
24390, -16439, -935, 1587, 337, -383, -312
24400, -16430, -932, 1591, 380, -414, -321
24410, -16420, -923, 1599, 361, -413, -323
24420, -16428, -924, 1583, 363, -400, -312
24430, -16425, -927, 1587, 351, -387, -298
24440, -16418, -926, 1581, 371, -402, -318
24450, -16439, -931, 1581, 368, -397, -315
24460, -16415, -933, 1573, 364, -402, -305
24470, -16416, -926, 1576, 363, -406, -300
24480, -16431, -916, 1551, 354, -395, -306
24490, -16444, -926, 1520, 365, -410, -333
24500, -16433, -940, 1543, 369, -415, -322
24510, -16414, -916, 1536, 345, -426, -305
24520, -16418, -981, 1544, 350, -426, -302
24530, -16433, -975, 1524, 355, -420, -302
24540, -16448, -930, 1514, 369, -453, -316
24550, -16447, -908, 1528, 332, -491, -323
24560, -16423, -898, 1561, 354, -518, -317
24570, -16404, -874, 1572, 319, -523, -316
24580, -16396, -886, 1596, 330, -529, -329
24590, -16407, -922, 1596, 313, -469, -319
24600, -16393, -950, 1551, 336, -475, -328
24610, -16405, -942, 1557, 336, -487, -329
24620, -16449, -917, 1619, 331, -533, -331
24630, -16444, -910, 1595, 334, -518, -328
24640, -16438, -938, 1555, 324, -497, -322
24650, -16413, -946, 1557, 332, -522, -309
24660, -16419, -983, 1603, 342, -580, -303
24670, -16418, -979, 1621, 352, -569, -302
24680, -16424, -976, 1591, 352, -511, -311
24690, -16428, -960, 1552, 342, -507, -310
24700, -16429, -920, 1569, 334, -509, -303
24710, -16448, -919, 1582, 340, -520, -317
24720, -16441, -919, 1579, 352, -541, -331
24730, -16434, -919, 1573, 323, -530, -310
24740, -16410, -923, 1611, 323, -528, -318
24750, -16414, -917, 1616, 340, -515, -332
24760, -16411, -901, 1621, 350, -518, -314
24770, -16432, -933, 1640, 343, -511, -327
24780, -16444, -905, 1669, 335, -501, -326
24790, -16458, -909, 1624, 331, -436, -337
24800, -16455, -939, 1586, 355, -458, -330
24810, -16442, -959, 1576, 358, -491, -327
24820, -16406, -904, 1677, 353, -538, -335
24830, -16415, -899, 1690, 326, -506, -313
24840, -16437, -910, 1642, 337, -480, -322
24850, -16441, -946, 1620, 337, -513, -317
24860, -16428, -968, 1597, 330, -514, -307
24870, -16408, -977, 1599, 335, -530, -322
24880, -16423, -966, 1592, 355, -552, -343
24890, -16427, -971, 1605, 355, -537, -337
24900, -16421, -950, 1581, 356, -542, -322
24910, -16417, -929, 1627, 351, -545, -312
24920, -16413, -942, 1643, 356, -560, -324
24930, -16424, -958, 1638, 358, -546, -324
24940, -16439, -953, 1644, 350, -541, -326
24950, -16418, -936, 1679, 352, -561, -329
24960, -16420, -948, 1700, 341, -565, -324
24970, -16429, -922, 1724, 340, -560, -313
24980, -16417, -939, 1720, 321, -510, -302
24990, -16425, -947, 1706, 344, -499, -325
25000, -16436, -943, 1698, 342, -490, -323
25010, -16429, -936, 1705, 342, -498, -316
25020, -16428, -909, 1695, 332, -473, -313
25030, -16429, -917, 1681, 337, -468, -318
25040, -16417, -937, 1660, 341, -483, -322
25050, -16423, -928, 1654, 349, -491, -314
25060, -16440, -944, 1641, 348, -483, -314
25070, -16426, -950, 1638, 354, -495, -315
25080, -16429, -948, 1641, 348, -486, -309
25090, -16421, -954, 1659, 355, -498, -310
25100, -16411, -941, 1656, 326, -492, -307
25110, -16419, -957, 1637, 332, -498, -309
25120, -16413, -933, 1631, 359, -506, -316
25130, -16422, -941, 1670, 319, -520, -304
25140, -16418, -926, 1678, 336, -537, -309
25150, -16411, -936, 1701, 315, -523, -312
25160, -16425, -941, 1715, 347, -536, -325
25170, -16430, -965, 1729, 362, -525, -324
25180, -16428, -940, 1701, 322, -515, -305
25190, -16421, -930, 1694, 332, -511, -300
25200, -16428, -937, 1687, 340, -515, -318
25210, -16426, -934, 1733, 358, -546, -318
25220, -16430, -915, 1723, 352, -532, -308
25230, -16435, -922, 1736, 357, -521, -301
25240, -16412, -918, 1714, 355, -512, -303
25250, -16415, -930, 1707, 345, -510, -310
25260, -16408, -914, 1709, 358, -501, -304
25270, -16407, -921, 1682, 350, -493, -307
25280, -16437, -949, 1656, 355, -511, -313
25290, -16411, -927, 1652, 339, -525, -308
25300, -16395, -929, 1682, 323, -540, -304
25310, -16404, -948, 1745, 344, -544, -315
25320, -16402, -961, 1748, 338, -520, -314
25330, -16456, -933, 1709, 350, -492, -326
25340, -16449, -919, 1692, 343, -503, -328
25350, -16450, -921, 1705, 343, -523, -329
25360, -16423, -877, 1769, 318, -512, -333
25370, -16397, -887, 1745, 315, -497, -345
25380, -16339, -927, 1679, 306, -466, -338
25390, -16403, -940, 1738, 342, -535, -343
25400, -16427, -934, 1807, 329, -553, -351
25410, -16478, -908, 1821, 319, -537, -342
25420, -16448, -907, 1736, 306, -457, -312
25430, -16418, -940, 1707, 328, -486, -314
25440, -16404, -958, 1712, 329, -528, -313
25450, -16408, -977, 1772, 327, -534, -297
25460, -16405, -975, 1755, 353, -530, -302
25470, -16437, -966, 1737, 352, -506, -308
25480, -16415, -976, 1710, 357, -497, -319
25490, -16411, -961, 1707, 348, -486, -326
25500, -16419, -943, 1717, 340, -474, -311
25510, -16430, -934, 1703, 335, -481, -309
25520, -16419, -930, 1729, 352, -495, -307
25530, -16402, -918, 1751, 335, -482, -314
25540, -16369, -923, 1752, 326, -482, -310
25550, -16394, -893, 1799, 335, -485, -306
25560, -16405, -894, 1817, 319, -444, -293
25570, -16423, -898, 1801, 339, -430, -315
25580, -16460, -896, 1742, 341, -395, -317
25590, -16447, -931, 1733, 327, -419, -328
25600, -16420, -957, 1760, 357, -461, -322
25610, -16408, -946, 1806, 355, -474, -321
25620, -16432, -892, 1797, 329, -419, -313
25630, -16428, -891, 1740, 337, -403, -300
25640, -16405, -925, 1751, 347, -494, -323
25650, -16404, -927, 1768, 324, -482, -312
25660, -16407, -928, 1745, 333, -484, -312
25670, -16435, -953, 1781, 341, -457, -319
25680, -16441, -971, 1701, 351, -425, -316
25690, -16436, -979, 1688, 367, -447, -328
25700, -16437, -964, 1692, 358, -452, -323
25710, -16406, -934, 1699, 326, -466, -307
25720, -16401, -920, 1717, 336, -472, -311
25730, -16402, -920, 1753, 348, -495, -302
25740, -16391, -901, 1757, 346, -489, -310
25750, -16408, -930, 1745, 337, -474, -315
25760, -16416, -937, 1769, 353, -462, -309
25770, -16416, -935, 1734, 357, -475, -311
25780, -16427, -940, 1794, 345, -472, -301
25790, -16412, -924, 1807, 357, -474, -290
25800, -16410, -916, 1808, 360, -480, -287
25810, -16417, -939, 1805, 360, -456, -306
25820, -16417, -930, 1777, 347, -444, -296
25830, -16432, -950, 1778, 363, -434, -309
25840, -16422, -940, 1776, 346, -445, -313
25850, -16417, -919, 1790, 359, -442, -311
25860, -16406, -894, 1714, 356, -447, -313
25870, -16411, -904, 1683, 344, -448, -313
25880, -16416, -903, 1696, 346, -456, -305
25890, -16407, -902, 1680, 351, -472, -309
25900, -16415, -900, 1718, 347, -481, -320
25910, -16417, -905, 1733, 341, -477, -301
25920, -16408, -903, 1728, 348, -484, -315
25930, -16424, -931, 1740, 344, -482, -312
25940, -16419, -920, 1727, 355, -502, -325
25950, -16404, -918, 1777, 351, -513, -320
25960, -16408, -914, 1777, 342, -506, -307
25970, -16406, -939, 1814, 350, -492, -322
25980, -16411, -941, 1831, 344, -487, -314
25990, -16408, -949, 1830, 333, -471, -312
26000, -16411, -944, 1812, 352, -460, -330
26010, -16425, -943, 1789, 336, -445, -321
26020, -16421, -935, 1793, 339, -451, -330
26030, -16416, -930, 1801, 339, -437, -325
26040, -16442, -916, 1775, 329, -439, -314
26050, -16420, -931, 1753, 339, -435, -318
26060, -16420, -932, 1761, 340, -435, -320
26070, -16408, -927, 1731, 352, -438, -312
26080, -16405, -923, 1727, 363, -442, -307
26090, -16420, -939, 1731, 365, -437, -313
26100, -16414, -927, 1686, 370, -473, -310
26110, -16404, -895, 1699, 342, -479, -300
26120, -16379, -894, 1761, 345, -510, -295
26130, -16382, -951, 1854, 366, -468, -320
26140, -16423, -951, 1791, 352, -400, -309
26150, -16461, -923, 1751, 373, -397, -324
26160, -16467, -911, 1760, 376, -431, -328
26170, -16432, -926, 1779, 338, -472, -320
26180, -16421, -904, 1815, 331, -459, -334
26190, -16416, -884, 1809, 340, -429, -324
26200, -16407, -892, 1797, 351, -408, -329
26210, -16363, -944, 1724, 339, -396, -328
26220, -16403, -932, 1789, 353, -452, -340
26230, -16408, -917, 1824, 344, -474, -335
26240, -16465, -896, 1808, 343, -376, -316
26250, -16438, -913, 1760, 326, -355, -310
26260, -16422, -942, 1716, 346, -376, -314
26270, -16400, -949, 1755, 347, -406, -308
26280, -16409, -978, 1768, 344, -420, -299
26290, -16425, -982, 1753, 375, -390, -301
26300, -16398, -954, 1705, 369, -365, -301
26310, -16410, -931, 1683, 361, -367, -325
26320, -16422, -928, 1690, 369, -387, -318
26330, -16425, -918, 1694, 350, -370, -316
26340, -16417, -918, 1738, 349, -387, -324
26350, -16411, -905, 1736, 338, -380, -323
26360, -16403, -894, 1743, 342, -367, -315
26370, -16391, -888, 1767, 345, -362, -325
26380, -16392, -888, 1786, 349, -362, -322
26390, -16394, -887, 1795, 344, -330, -312
26400, -16442, -906, 1745, 351, -263, -325
26410, -16451, -920, 1708, 354, -237, -316
26420, -16450, -944, 1684, 375, -263, -327
26430, -16422, -947, 1645, 382, -295, -331
26440, -16406, -926, 1731, 392, -331, -333
26450, -16430, -918, 1749, 375, -333, -337
26460, -16440, -892, 1723, 367, -303, -326
26470, -16427, -945, 1615, 381, -306, -322
26480, -16413, -940, 1617, 378, -353, -310
26490, -16405, -937, 1660, 368, -376, -323
26500, -16418, -968, 1648, 367, -342, -324
26510, -16419, -961, 1618, 377, -330, -326
26520, -16425, -969, 1594, 381, -321, -322
26530, -16434, -943, 1572, 381, -328, -327
26540, -16430, -932, 1599, 369, -362, -320
26550, -16425, -932, 1631, 351, -364, -315
26560, -16420, -938, 1637, 350, -367, -313
26570, -16416, -926, 1646, 357, -379, -314
26580, -16438, -925, 1640, 371, -382, -321
26590, -16422, -929, 1644, 341, -390, -315
26600, -16413, -931, 1659, 352, -410, -315
26610, -16420, -920, 1661, 366, -415, -320
26620, -16410, -912, 1660, 354, -396, -316
26630, -16415, -907, 1653, 343, -376, -316
26640, -16425, -922, 1652, 359, -355, -317
26650, -16432, -925, 1638, 341, -348, -319
26660, -16407, -911, 1637, 343, -360, -319
26670, -16422, -928, 1618, 354, -378, -324
26680, -16430, -924, 1612, 357, -377, -317
26690, -16452, -918, 1625, 358, -372, -315
26700, -16419, -935, 1597, 374, -376, -327
26710, -16410, -947, 1574, 347, -372, -316
26720, -16421, -952, 1580, 355, -380, -323
26730, -16411, -953, 1579, 353, -374, -327
26740, -16439, -944, 1575, 346, -355, -316
26750, -16420, -958, 1585, 341, -372, -321
26760, -16411, -943, 1571, 355, -380, -330
26770, -16419, -955, 1583, 351, -374, -310
26780, -16422, -930, 1583, 351, -386, -306
26790, -16442, -938, 1572, 356, -412, -322
26800, -16440, -929, 1576, 378, -428, -323
26810, -16428, -935, 1604, 346, -417, -305
26820, -16433, -928, 1600, 350, -411, -318
26830, -16437, -933, 1594, 363, -412, -320
26840, -16441, -954, 1589, 363, -399, -314
26850, -16423, -934, 1588, 336, -405, -316
26860, -16422, -935, 1564, 352, -414, -306
26870, -16422, -937, 1567, 351, -427, -304
26880, -16421, -907, 1611, 344, -435, -313
26890, -16410, -890, 1610, 352, -435, -322
26900, -16433, -896, 1600, 344, -424, -337
26910, -16435, -922, 1580, 346, -408, -346
26920, -16415, -927, 1563, 372, -414, -342
26930, -16415, -917, 1579, 345, -412, -332
26940, -16414, -942, 1554, 333, -399, -331
26950, -16422, -986, 1546, 341, -406, -329
26960, -16453, -988, 1539, 336, -405, -319
26970, -16483, -988, 1525, 355, -402, -330
26980, -16436, -938, 1784, 358, -429, -326
26990, -16419, -901, 1581, 341, -463, -328
27000, -16404, -881, 1609, 347, -455, -329
27010, -16404, -882, 1609, 338, -424, -333
27020, -16402, -964, 1552, 346, -352, -341
27030, -16408, -991, 1528, 352, -350, -334
27040, -16427, -996, 1574, 359, -384, -348
27050, -16458, -958, 1600, 359, -411, -349
27060, -16448, -948, 1572, 361, -392, -345
27070, -16449, -947, 1496, 350, -383, -322
27080, -16423, -971, 1508, 370, -460, -317
27090, -16410, -963, 1526, 364, -471, -305
27100, -16402, -962, 1550, 384, -489, -300
27110, -16435, -961, 1503, 359, -457, -307
27120, -16440, -934, 1489, 367, -472, -310
27130, -16450, -925, 1495, 357, -499, -311
27140, -16437, -929, 1520, 355, -523, -318
27150, -16437, -931, 1541, 345, -533, -317
27160, -16446, -940, 1544, 362, -547, -323
27170, -16426, -913, 1517, 346, -533, -305
27180, -16404, -911, 1562, 329, -505, -305
27190, -16408, -887, 1578, 342, -510, -311
27200, -16419, -904, 1574, 341, -502, -318
27210, -16431, -898, 1575, 348, -480, -321
27220, -16462, -905, 1566, 322, -462, -317
27230, -16438, -945, 1538, 330, -472, -312
27240, -16408, -950, 1565, 336, -496, -299
27250, -16407, -952, 1621, 325, -525, -304
27260, -16425, -947, 1649, 335, -506, -291
27270, -16448, -940, 1627, 343, -502, -302
27280, -16440, -951, 1586, 334, -503, -313
27290, -16432, -983, 1575, 339, -537, -320
27300, -16412, -982, 1600, 344, -554, -310
27310, -16406, -958, 1585, 354, -531, -330
27320, -16443, -954, 1576, 372, -529, -340
27330, -16414, -947, 1554, 360, -518, -330
27340, -16414, -909, 1538, 357, -502, -314
27350, -16413, -924, 1558, 334, -521, -323
27360, -16430, -908, 1576, 337, -525, -321
27370, -16423, -909, 1565, 341, -523, -312
27380, -16430, -938, 1587, 333, -521, -313
27390, -16432, -946, 1575, 362, -529, -320
27400, -16442, -940, 1599, 341, -525, -309
27410, -16414, -932, 1594, 368, -559, -318
27420, -16418, -953, 1618, 366, -569, -324
27430, -16402, -935, 1640, 364, -562, -319
27440, -16420, -941, 1659, 359, -556, -325
