timestamp, ax, ay, az, gx, gy, gz
0, -15308, -3082, 5731, 467, 37, -702
10, -15285, -3038, 5780, 467, 41, -719
20, -15298, -3051, 5709, 473, 89, -738
30, -15278, -3008, 5636, 451, 103, -719
40, -15089, -3050, 5561, 444, 79, -672
50, -15181, -3122, 5558, 392, 115, -727
60, -15265, -3237, 5594, 386, 118, -754
70, -15422, -3302, 5646, 363, 92, -792
80, -15399, -3292, 5741, 382, 62, -722
90, -15400, -3461, 5705, 473, 324, -575
100, -15354, -3522, 5657, 558, 356, -562
110, -15515, -3424, 5516, 710, 497, -552
120, -15470, -3391, 5494, 719, 462, -511
130, -15445, -3375, 5462, 759, 429, -515
140, -15412, -3337, 5400, 740, 378, -524
150, -15338, -3178, 5363, 539, 404, -459
160, -15348, -3188, 5303, 515, 491, -475
170, -15529, -3302, 5306, 494, 514, -516
180, -15442, -3290, 5270, 558, 461, -417
190, -15371, -3358, 5250, 549, 533, -427
200, -15399, -3399, 5203, 544, 564, -446
210, -15433, -3412, 5169, 499, 529, -451
220, -15505, -3358, 5192, 501, 428, -380
230, -15496, -3391, 5204, 506, 331, -366
240, -15571, -3380, 5210, 518, 210, -392
250, -15536, -3415, 5241, 486, 51, -395
260, -15520, -3464, 5274, 425, -36, -403
270, -15500, -3482, 5262, 415, -87, -386
280, -15480, -3456, 5181, 413, -72, -370
290, -15519, -3450, 5080, 450, -96, -354
300, -15570, -3419, 5051, 402, -152, -326
310, -15513, -3435, 5012, 446, -256, -303
320, -15525, -3472, 5027, 358, -434, -321
330, -15575, -3459, 5051, 391, -503, -330
340, -15559, -3478, 5048, 422, -547, -317
350, -15521, -3547, 5022, 452, -550, -283
360, -15513, -3551, 4952, 428, -491, -239
370, -15554, -3562, 4912, 438, -488, -228
380, -15545, -3579, 4912, 419, -583, -208
390, -15541, -3587, 4989, 406, -663, -200
400, -15512, -3560, 5047, 435, -687, -183
410, -15477, -3503, 5099, 430, -663, -155
420, -15512, -3434, 5089, 431, -640, -139
430, -15525, -3421, 5088, 473, -661, -133
440, -15519, -3402, 5080, 489, -689, -120
450, -15470, -3360, 5156, 537, -751, -73
460, -15469, -3322, 5207, 535, -707, -41
470, -15453, -3288, 5242, 572, -640, -32
480, -15475, -3243, 5240, 605, -492, -40
490, -15524, -3219, 5246, 627, -460, -29
500, -15509, -3182, 5257, 626, -474, -28
510, -15537, -3164, 5251, 629, -484, -43
520, -15465, -3184, 5324, 644, -442, -30
530, -15464, -3146, 5327, 665, -382, -33
540, -15497, -3157, 5413, 626, -372, -47
550, -15485, -3148, 5363, 657, -206, -50
560, -15513, -3156, 5356, 671, -113, -57
570, -15515, -3185, 5308, 671, -36, -76
580, -15482, -3212, 5242, 678, 17, -83
590, -15475, -3216, 5195, 733, 86, -120
600, -15449, -3228, 5147, 732, 96, -127
610, -15435, -3155, 5120, 725, 89, -137
620, -15458, -3115, 5093, 707, 84, -156
630, -15445, -3087, 5161, 687, 87, -171
640, -15446, -3063, 5165, 687, 114, -179
650, -15466, -3038, 5104, 602, 252, -178
660, -15513, -3050, 5068, 603, 272, -200
670, -15517, -3043, 5041, 567, 292, -196
680, -15533, -3076, 4999, 487, 311, -225
690, -15501, -3083, 4966, 466, 341, -231
700, -15491, -3079, 4915, 451, 419, -225
710, -15484, -3110, 4835, 458, 480, -217
720, -15487, -3223, 4832, 431, 538, -158
730, -15471, -3242, 4857, 410, 577, -129
740, -15513, -3223, 4819, 416, 663, -108
750, -15528, -3308, 4760, 346, 792, -131
760, -15564, -3354, 4653, 330, 884, -152
770, -15607, -3391, 4608, 321, 935, -150
780, -15599, -3393, 4557, 333, 926, -147
790, -15605, -3357, 4576, 268, 912, -168
800, -15627, -3303, 4615, 263, 905, -191
810, -15619, -3252, 4631, 268, 933, -210
820, -15622, -3155, 4469, 308, 944, -255
830, -15643, -3103, 4387, 273, 901, -267
840, -15681, -3036, 4360, 280, 805, -290
850, -15813, -2948, 4388, 287, 671, -319
860, -15854, -2901, 4288, 286, 677, -311
870, -15884, -2860, 4226, 276, 660, -317
880, -15872, -2861, 4026, 280, 529, -287
890, -15855, -2906, 4017, 274, 423, -284
900, -15807, -2938, 3973, 333, 352, -264
910, -15778, -3020, 3986, 383, 152, -280
920, -15802, -3043, 3971, 351, 120, -264
930, -15822, -3095, 3954, 344, 108, -265
940, -15854, -3149, 3913, 369, 63, -268
950, -15856, -3228, 3925, 391, -105, -273
960, -15857, -3264, 3919, 363, -193, -273
970, -15830, -3267, 3961, 397, -290, -269
980, -15762, -3220, 4058, 396, -415, -259
990, -15744, -3219, 4081, 361, -437, -267
1000, -15763, -3200, 4088, 336, -424, -279
1010, -15777, -3206, 4094, 345, -403, -304
1020, -15790, -3205, 4038, 390, -400, -312
1030, -15776, -3177, 4081, 378, -432, -330
1040, -15755, -3147, 4119, 370, -429, -314
1050, -15745, -3046, 4144, 359, -405, -311
1060, -15770, -3031, 4147, 376, -379, -324
1070, -15785, -3037, 4117, 350, -390, -326
1080, -15777, -3021, 4182, 379, -458, -318
1090, -15808, -3044, 4185, 372, -431, -339
1100, -15803, -3049, 4163, 349, -387, -316
1110, -15795, -3073, 4128, 380, -376, -331
1120, -15798, -3116, 4061, 381, -350, -324
1130, -15799, -3133, 4044, 388, -341, -321
1140, -15771, -3147, 4025, 373, -333, -311
1150, -15802, -3146, 3993, 363, -328, -298
1160, -15797, -3146, 3978, 369, -349, -289
1170, -15826, -3128, 3965, 339, -376, -290
1180, -15831, -3150, 3980, 354, -409, -286
1190, -15793, -3178, 4059, 350, -468, -306
1200, -15786, -3162, 4043, 360, -440, -307
1210, -15805, -3161, 4069, 342, -427, -311
1220, -15810, -3089, 3992, 350, -430, -319
1230, -15828, -3103, 3955, 363, -432, -325
1240, -15817, -3124, 3992, 353, -454, -321
1250, -15804, -3052, 3989, 368, -501, -311
1260, -15785, -3054, 4064, 359, -558, -326
1270, -15804, -3086, 4084, 366, -539, -304
1280, -15812, -3073, 4062, 385, -513, -306
1290, -15835, -3055, 4109, 344, -535, -313
1300, -15816, -3066, 4123, 325, -526, -304
1310, -15831, -3074, 4129, 359, -529, -308
1320, -15798, -3080, 4110, 363, -517, -309
1330, -15809, -3105, 4134, 347, -527, -291
1340, -15778, -3117, 4126, 347, -527, -278
1350, -15777, -3162, 4129, 385, -567, -296
1360, -15793, -3162, 4104, 353, -560, -286
1370, -15811, -3162, 4083, 376, -576, -296
1380, -15818, -3176, 4070, 345, -579, -265
1390, -15795, -3146, 4059, 328, -599, -253
1400, -15778, -3127, 4095, 321, -607, -264
1410, -15776, -3101, 4089, 302, -624, -252
1420, -15768, -3119, 4191, 315, -650, -276
1430, -15788, -3126, 4208, 335, -591, -270
1440, -15783, -3119, 4218, 340, -550, -277
1450, -15826, -3081, 4195, 325, -511, -284
1460, -15812, -3052, 4170, 325, -524, -296
1470, -15766, -3035, 4159, 326, -518, -302
1480, -15739, -3080, 4042, 324, -492, -320
1490, -15741, -3110, 4065, 330, -505, -338
1500, -15753, -3107, 4137, 363, -570, -343
1510, -15767, -3071, 4189, 342, -583, -339
1520, -15806, -2987, 4180, 319, -530, -345
1530, -15822, -3023, 4142, 316, -511, -348
1540, -15806, -3017, 4110, 329, -513, -327
1550, -15774, -3079, 4134, 375, -583, -321
1560, -15788, -3119, 4154, 369, -605, -327
1570, -15761, -3176, 4154, 376, -589, -318
1580, -15763, -3182, 4149, 362, -529, -314
1590, -15781, -3195, 4129, 360, -508, -309
1600, -15796, -3176, 4139, 379, -521, -305
1610, -15778, -3149, 4141, 383, -542, -317
1620, -15771, -3156, 4166, 348, -560, -317
1630, -15781, -3131, 4145, 346, -568, -301
1640, -15764, -3097, 4171, 334, -571, -292
1650, -15716, -3076, 4278, 366, -597, -295
1660, -15704, -3080, 4292, 375, -552, -293
1670, -15737, -3071, 4288, 349, -476, -289
1680, -15812, -3100, 4173, 346, -398, -315
1690, -15804, -3097, 4159, 328, -419, -308
1700, -15804, -3105, 4172, 333, -463, -316
1710, -15766, -3087, 4208, 340, -511, -302
1720, -15791, -3074, 4189, 350, -500, -295
1730, -15788, -3060, 4171, 344, -503, -293
1740, -15781, -3061, 4153, 342, -535, -281
1750, -15757, -3070, 4195, 339, -588, -276
1760, -15768, -3077, 4234, 346, -594, -273
1770, -15776, -3100, 4248, 363, -586, -285
1780, -15800, -3128, 4253, 366, -554, -284
1790, -15796, -3131, 4167, 357, -504, -278
1800, -15771, -3145, 4181, 364, -504, -283
1810, -15734, -3130, 4205, 358, -516, -280
1820, -15733, -3094, 4218, 360, -530, -303
1830, -15750, -3116, 4198, 334, -511, -296
1840, -15768, -3122, 4219, 341, -523, -306
1850, -15775, -3115, 4227, 348, -518, -296
1860, -15770, -3102, 4248, 353, -523, -285
1870, -15744, -3068, 4246, 356, -569, -301
1880, -15755, -3082, 4268, 367, -584, -303
1890, -15742, -3058, 4255, 345, -568, -296
1900, -15743, -3055, 4290, 341, -561, -305
1910, -15754, -3084, 4295, 351, -522, -301
1920, -15759, -3070, 4284, 348, -494, -298
1930, -15745, -3068, 4294, 349, -486, -301
1940, -15760, -3058, 4269, 382, -493, -311
1950, -15781, -3067, 4281, 348, -488, -302
1960, -15773, -3079, 4253, 348, -499, -304
1970, -15763, -3083, 4253, 348, -497, -301
1980, -15773, -3103, 4253, 334, -502, -308
1990, -15783, -3106, 4250, 343, -515, -303
2000, -15769, -3102, 4209, 342, -512, -305
2010, -15755, -3095, 4251, 348, -510, -303
2020, -15755, -3107, 4258, 304, -509, -287
2030, -15765, -3091, 4285, 348, -523, -297
2040, -15745, -3083, 4288, 339, -525, -296
2050, -15740, -3079, 4305, 341, -513, -282
2060, -15771, -3093, 4278, 308, -499, -298
2070, -15754, -3107, 4280, 367, -528, -302
2080, -15746, -3110, 4290, 347, -528, -290
2090, -15753, -3142, 4309, 368, -553, -285
2100, -15755, -3106, 4342, 355, -518, -269
2110, -15772, -3039, 4316, 341, -516, -280
2120, -15748, -3002, 4334, 331, -499, -274
2130, -15738, -3067, 4306, 355, -533, -277
2140, -15719, -3107, 4336, 360, -554, -268
2150, -15727, -3139, 4356, 373, -563, -279
2160, -15762, -3134, 4374, 379, -533, -275
2170, -15773, -3105, 4364, 358, -462, -294
2180, -15743, -3069, 4342, 357, -427, -313
2190, -15741, -3041, 4350, 322, -365, -303
2200, -15686, -3044, 4221, 316, -297, -294
2210, -15679, -3078, 4177, 307, -344, -326
2220, -15697, -3095, 4246, 312, -397, -330
2230, -15725, -3076, 4357, 338, -438, -328
2240, -15792, -3041, 4334, 287, -343, -330
2250, -15819, -3058, 4279, 277, -304, -334
2260, -15796, -3044, 4246, 289, -330, -316
2270, -15735, -3084, 4298, 329, -397, -309
2280, -15718, -3109, 4322, 335, -393, -298
2290, -15731, -3124, 4336, 334, -355, -314
2300, -15733, -3116, 4283, 329, -307, -324
2310, -15742, -3102, 4234, 323, -296, -315
2320, -15771, -3145, 4254, 320, -330, -319
2330, -15791, -3128, 4221, 325, -341, -298
2340, -15794, -3101, 4217, 343, -368, -294
2350, -15796, -3076, 4239, 355, -390, -290
2360, -15735, -3043, 4263, 334, -401, -295
2370, -15717, -3074, 4296, 306, -387, -285
2380, -15707, -3064, 4306, 340, -360, -283
2390, -15719, -3043, 4314, 348, -316, -283
2400, -15782, -3066, 4243, 328, -257, -319
2410, -15799, -3080, 4203, 366, -250, -335
2420, -15791, -3095, 4191, 344, -260, -339
2430, -15756, -3119, 4209, 338, -311, -326
2440, -15749, -3090, 4231, 358, -312, -320
2450, -15761, -3069, 4266, 340, -292, -311
2460, -15771, -3071, 4216, 314, -305, -325
2470, -15752, -3062, 4199, 324, -313, -323
2480, -15749, -3065, 4243, 351, -336, -314
2490, -15748, -3085, 4254, 349, -346, -329
2500, -15784, -3122, 4249, 338, -283, -327
2510, -15790, -3101, 4227, 322, -259, -323
2520, -15776, -3127, 4177, 318, -228, -330
2530, -15781, -3121, 4161, 319, -228, -335
2540, -15790, -3124, 4139, 350, -241, -343
2550, -15777, -3112, 4144, 349, -243, -332
2560, -15780, -3117, 4122, 325, -240, -329
2570, -15796, -3108, 4129, 331, -242, -323
2580, -15801, -3101, 4122, 326, -255, -314
2590, -15792, -3106, 4101, 310, -279, -315
2600, -15778, -3111, 4115, 365, -289, -313
2610, -15768, -3103, 4119, 355, -289, -327
2620, -15797, -3098, 4109, 357, -284, -334
2630, -15800, -3112, 4107, 361, -283, -325
2640, -15784, -3111, 4121, 335, -297, -327
2650, -15785, -3099, 4110, 333, -297, -327
2660, -15790, -3098, 4094, 369, -305, -326
2670, -15772, -3093, 4100, 341, -292, -313
2680, -15800, -3092, 4125, 351, -303, -324
2690, -15788, -3088, 4122, 334, -281, -333
2700, -15791, -3096, 4105, 314, -270, -333
2710, -15799, -3101, 4099, 349, -274, -328
2720, -15790, -3111, 4085, 360, -274, -323
2730, -15809, -3111, 4069, 337, -268, -317
2740, -15818, -3121, 4047, 307, -278, -322
2750, -15824, -3137, 4031, 330, -313, -331
2760, -15811, -3129, 4039, 380, -327, -331
2770, -15800, -3117, 4042, 342, -305, -317
2780, -15805, -3108, 4016, 332, -305, -316
2790, -15805, -3129, 3993, 362, -325, -333
2800, -15816, -3148, 4014, 324, -321, -328
2810, -15824, -3139, 4008, 340, -344, -331
2820, -15827, -3115, 4000, 345, -364, -319
2830, -15818, -3140, 4004, 351, -362, -309
2840, -15814, -3139, 4004, 348, -390, -313
2850, -15794, -3117, 3998, 338, -420, -307
2860, -15806, -3091, 4021, 375, -459, -308
2870, -15810, -3113, 4017, 366, -463, -306
2880, -15809, -3101, 4012, 369, -465, -315
2890, -15818, -3123, 3968, 370, -488, -287
2900, -15793, -3132, 3981, 330, -493, -283
2910, -15770, -3160, 4046, 335, -520, -281
2920, -15838, -3149, 4057, 353, -529, -283
2930, -15873, -3133, 4016, 371, -499, -277
2940, -15855, -3119, 4024, 355, -510, -293
2950, -15799, -3089, 4058, 332, -518, -291
2960, -15763, -3061, 4061, 331, -534, -305
2970, -15738, -3050, 4078, 356, -527, -310
2980, -15830, -3103, 4111, 324, -504, -326
2990, -15838, -3092, 4078, 282, -463, -308
3000, -15824, -3094, 4023, 277, -438, -296
3010, -15797, -3140, 4025, 310, -499, -282
3020, -15773, -3148, 4022, 354, -553, -281
3030, -15803, -3145, 4079, 371, -576, -278
3040, -15792, -3135, 4079, 378, -566, -299
3050, -15804, -3124, 4054, 348, -532, -282
3060, -15788, -3116, 4033, 368, -546, -281
3070, -15808, -3138, 4001, 362, -574, -280
3080, -15826, -3162, 4046, 360, -614, -282
3090, -15839, -3180, 4035, 375, -604, -271
3100, -15831, -3166, 4064, 383, -623, -265
3110, -15753, -3095, 4111, 343, -663, -248
3120, -15743, -3093, 4122, 348, -662, -255
3130, -15752, -3071, 4164, 383, -635, -262
3140, -15787, -3069, 4108, 373, -569, -267
3150, -15806, -3075, 4098, 331, -484, -273
3160, -15813, -3106, 4086, 308, -449, -271
3170, -15797, -3099, 4063, 323, -453, -291
3180, -15754, -3091, 4106, 323, -494, -304
3190, -15751, -3066, 4145, 343, -490, -299
3200, -15787, -3041, 4130, 329, -480, -305
3210, -15791, -3024, 4125, 313, -472, -307
3220, -15786, -3035, 4126, 320, -513, -321
3230, -15773, -3038, 4160, 314, -521, -308
3240, -15748, -3067, 4179, 354, -522, -317
3250, -15795, -3079, 4153, 314, -478, -300
3260, -15816, -3116, 4145, 338, -462, -321
3270, -15799, -3120, 4083, 303, -471, -319
3280, -15805, -3119, 4088, 353, -479, -311
3290, -15813, -3122, 4073, 358, -491, -321
3300, -15783, -3129, 4069, 349, -495, -305
3310, -15788, -3148, 4087, 297, -474, -294
3320, -15803, -3160, 4088, 351, -501, -300
3330, -15783, -3156, 4090, 341, -501, -293
3340, -15787, -3164, 4100, 364, -528, -277
3350, -15786, -3142, 4128, 334, -527, -269
3360, -15773, -3138, 4141, 338, -528, -270
3370, -15765, -3101, 4161, 328, -540, -296
3380, -15772, -3108, 4162, 314, -518, -298
3390, -15784, -3101, 4160, 327, -527, -319
3400, -15733, -3100, 4153, 327, -532, -304
3410, -15785, -3092, 4177, 354, -535, -305
3420, -15783, -3081, 4177, 356, -514, -290
3430, -15797, -3066, 4163, 355, -521, -304
3440, -15796, -3061, 4168, 333, -527, -318
3450, -15791, -3063, 4155, 340, -516, -307
3460, -15780, -3082, 4147, 347, -510, -304
3470, -15795, -3069, 4142, 358, -515, -291
3480, -15796, -3085, 4142, 384, -524, -306
3490, -15768, -3099, 4156, 382, -521, -283
3500, -15771, -3116, 4154, 375, -549, -310
3510, -15796, -3109, 4154, 361, -545, -292
3520, -15798, -3115, 4133, 345, -536, -284
3530, -15786, -3123, 4144, 324, -519, -276
3540, -15763, -3120, 4153, 371, -543, -294
3550, -15767, -3116, 4178, 366, -543, -302
3560, -15772, -3097, 4197, 353, -547, -299
3570, -15780, -3116, 4200, 360, -525, -296
3580, -15790, -3105, 4191, 340, -521, -296
3590, -15759, -3095, 4210, 316, -528, -284
3600, -15749, -3098, 4211, 329, -533, -278
3610, -15762, -3084, 4234, 345, -546, -290
3620, -15787, -3084, 4226, 346, -532, -297
3630, -15798, -3093, 4174, 353, -519, -282
3640, -15781, -3090, 4178, 344, -517, -293
3650, -15787, -3092, 4168, 336, -514, -279
3660, -15735, -3102, 4242, 353, -555, -264
3670, -15769, -3104, 4256, 348, -560, -285
3680, -15807, -3106, 4226, 358, -523, -281
3690, -15824, -3098, 4201, 363, -475, -297
3700, -15777, -3067, 4213, 326, -461, -294
3710, -15775, -3034, 4211, 303, -446, -291
3720, -15731, -3041, 4201, 302, -457, -306
3730, -15701, -3092, 4161, 313, -430, -310
3740, -15747, -3101, 4247, 300, -481, -323
3750, -15779, -3079, 4295, 333, -503, -321
3760, -15794, -3076, 4274, 312, -467, -329
3770, -15808, -3076, 4219, 290, -430, -308
3780, -15773, -3097, 4176, 280, -474, -290
3790, -15775, -3106, 4191, 341, -531, -302
3800, -15739, -3101, 4217, 355, -571, -293
3810, -15763, -3115, 4264, 361, -553, -300
3820, -15766, -3133, 4240, 370, -537, -299
3830, -15755, -3093, 4236, 339, -513, -280
3840, -15785, -3103, 4189, 338, -489, -293
3850, -15783, -3096, 4203, 293, -470, -290
3860, -15778, -3111, 4213, 339, -472, -290
3870, -15797, -3110, 4192, 332, -486, -293
3880, -15744, -3092, 4192, 305, -515, -287
3890, -15738, -3050, 4229, 315, -512, -284
3900, -15729, -3039, 4267, 330, -538, -299
3910, -15734, -3054, 4282, 345, -524, -311
3920, -15783, -3066, 4281, 295, -415, -290
3930, -15730, -3081, 4277, 333, -428, -307
3940, -15766, -3061, 4271, 315, -411, -308
3950, -15806, -3070, 4216, 330, -404, -312
3960, -15782, -3080, 4217, 335, -424, -312
3970, -15744, -3070, 4223, 358, -495, -304
3980, -15747, -3080, 4266, 336, -513, -314
3990, -15764, -3081, 4258, 326, -508, -304
4000, -15786, -3115, 4253, 360, -459, -310
4010, -15799, -3131, 4216, 363, -460, -310
4020, -15797, -3133, 4210, 344, -474, -307
4030, -15755, -3113, 4215, 330, -488, -304
4040, -15743, -3099, 4213, 340, -485, -306
4050, -15755, -3092, 4224, 328, -466, -298
4060, -15747, -3132, 4210, 340, -470, -296
4070, -15764, -3098, 4229, 318, -484, -295
4080, -15776, -3110, 4251, 358, -499, -295
4090, -15764, -3095, 4232, 339, -504, -284
4100, -15753, -3076, 4246, 335, -508, -287
4110, -15772, -3074, 4254, 344, -517, -306
4120, -15754, -3074, 4271, 350, -512, -305
4130, -15769, -3062, 4262, 348, -512, -305
4140, -15763, -3067, 4247, 350, -503, -314
4150, -15779, -3080, 4263, 336, -480, -283
4160, -15775, -3074, 4241, 339, -479, -289
4170, -15772, -3074, 4280, 341, -489, -285
4180, -15781, -3093, 4267, 341, -482, -293
4190, -15763, -3082, 4261, 348, -495, -285
4200, -15782, -3073, 4268, 346, -506, -297
4210, -15743, -3092, 4276, 340, -492, -288
4220, -15758, -3080, 4281, 333, -482, -280
4230, -15753, -3095, 4263, 350, -480, -303
4240, -15747, -3095, 4257, 333, -470, -299
4250, -15761, -3099, 4264, 327, -467, -305
4260, -15758, -3097, 4302, 328, -465, -303
4270, -15753, -3099, 4257, 333, -468, -301
4280, -15759, -3088, 4263, 326, -464, -293
4290, -15750, -3093, 4246, 320, -465, -301
4300, -15747, -3093, 4262, 343, -473, -293
4310, -15769, -3084, 4261, 362, -477, -300
4320, -15755, -3091, 4255, 338, -482, -303
4330, -15766, -3087, 4249, 337, -486, -298
4340, -15745, -3086, 4255, 355, -503, -295
4350, -15760, -3075, 4273, 359, -505, -298
4360, -15748, -3065, 4283, 350, -508, -301
4370, -15768, -3075, 4292, 346, -504, -299
4380, -15766, -3060, 4284, 342, -487, -289
4390, -15768, -3072, 4286, 357, -486, -292
4400, -15739, -3063, 4297, 359, -499, -298
4410, -15742, -3064, 4292, 369, -505, -282
4420, -15764, -3054, 4295, 354, -491, -291
4430, -15807, -3082, 4266, 352, -488, -291
4440, -15764, -3078, 4252, 325, -500, -279
4450, -15746, -3075, 4263, 339, -494, -289
4460, -15688, -3096, 4338, 337, -532, -291
4470, -15728, -3116, 4333, 339, -527, -311
4480, -15782, -3102, 4324, 346, -484, -303
4490, -15792, -3080, 4334, 353, -451, -304
4500, -15781, -3094, 4301, 318, -423, -309
4510, -15762, -3053, 4285, 338, -417, -310
4520, -15705, -3018, 4315, 312, -407, -302
4530, -15687, -3081, 4203, 321, -393, -324
4540, -15694, -3097, 4222, 311, -424, -316
4550, -15757, -3105, 4321, 335, -493, -329
4560, -15802, -3054, 4353, 326, -489, -326
4570, -15814, -3060, 4287, 300, -415, -318
4580, -15791, -3052, 4243, 304, -432, -310
4590, -15749, -3061, 4261, 331, -493, -302
4600, -15737, -3103, 4330, 360, -551, -295
4610, -15742, -3107, 4325, 347, -523, -289
4620, -15739, -3108, 4326, 356, -492, -291
4630, -15751, -3093, 4285, 324, -444, -287
4640, -15743, -3085, 4282, 346, -441, -298
4650, -15749, -3096, 4259, 331, -439, -292
4660, -15763, -3097, 4273, 319, -449, -294
4670, -15751, -3095, 4252, 331, -453, -296
4680, -15746, -3086, 4289, 333, -478, -299
4690, -15733, -3067, 4316, 316, -489, -291
4700, -15720, -3044, 4347, 363, -495, -300
4710, -15704, -3028, 4378, 351, -472, -289
4720, -15775, -3049, 4338, 332, -398, -313
4730, -15817, -3083, 4298, 311, -373, -322
4740, -15774, -3109, 4287, 330, -379, -310
4750, -15702, -3091, 4320, 326, -419, -293
4760, -15739, -3060, 4338, 332, -428, -303
4770, -15762, -3036, 4304, 317, -409, -304
4780, -15791, -3049, 4298, 310, -405, -300
4790, -15758, -3056, 4289, 338, -451, -301
4800, -15732, -3036, 4296, 360, -495, -305
4810, -15717, -3060, 4301, 343, -499, -306
4820, -15773, -3082, 4296, 319, -483, -315
4830, -15768, -3091, 4276, 334, -460, -311
4840, -15778, -3119, 4280, 325, -459, -308
4850, -15759, -3104, 4302, 313, -449, -294
4860, -15742, -3096, 4295, 370, -459, -304
4870, -15745, -3099, 4279, 322, -446, -304
4880, -15745, -3103, 4318, 337, -483, -298
4890, -15746, -3096, 4317, 336, -494, -300
4900, -15756, -3070, 4321, 312, -487, -294
4910, -15746, -3063, 4320, 301, -473, -294
4920, -15746, -3076, 4326, 339, -475, -300
4930, -15763, -3077, 4328, 341, -477, -300
4940, -15745, -3074, 4338, 360, -440, -301
4950, -15770, -3069, 4329, 344, -455, -320
4960, -15749, -3076, 4325, 339, -450, -310
4970, -15762, -3050, 4310, 362, -452, -292
4980, -15767, -3053, 4308, 345, -445, -288
4990, -15760, -3063, 4317, 341, -457, -292
5000, -15748, -3080, 4311, 374, -470, -298
5010, -15748, -3075, 4283, 360, -456, -302
5020, -15753, -3079, 4309, 351, -463, -306
5030, -15731, -3092, 4289, 356, -468, -309
5040, -15749, -3093, 4280, 340, -458, -306
5050, -15759, -3095, 4294, 344, -463, -307
5060, -15744, -3092, 4260, 339, -475, -305
5070, -15740, -3072, 4310, 355, -480, -298
5080, -15755, -3089, 4325, 380, -484, -306
5090, -15759, -3084, 4317, 356, -478, -312
5100, -15716, -3084, 4315, 348, -471, -309
5110, -15762, -3091, 4334, 317, -451, -298
5120, -15743, -3083, 4315, 332, -469, -304
5130, -15758, -3078, 4328, 332, -460, -298
5140, -15745, -3067, 4323, 339, -456, -283
5150, -15759, -3083, 4319, 336, -466, -300
5160, -15745, -3068, 4310, 333, -471, -304
5170, -15756, -3082, 4322, 343, -469, -290
5180, -15764, -3084, 4318, 361, -480, -312
5190, -15754, -3064, 4334, 363, -479, -302
5200, -15746, -3058, 4319, 347, -453, -295
5210, -15757, -3063, 4323, 333, -465, -302
5220, -15753, -3062, 4296, 330, -451, -299
5230, -15776, -3066, 4306, 344, -455, -298
5240, -15738, -3071, 4313, 333, -482, -297
5250, -15745, -3082, 4318, 349, -466, -284
5260, -15741, -3059, 4299, 336, -468, -297
5270, -15766, -3071, 4276, 317, -484, -298
5280, -15726, -3077, 4285, 328, -497, -292
5290, -15690, -3077, 4318, 339, -516, -280
5300, -15699, -3097, 4375, 336, -533, -320
5310, -15758, -3101, 4383, 376, -483, -306
5320, -15782, -3089, 4347, 361, -463, -316
5330, -15793, -3088, 4345, 351, -440, -329
5340, -15774, -3070, 4329, 319, -404, -310
5350, -15756, -3046, 4325, 305, -396, -309
5360, -15698, -3051, 4290, 324, -385, -314
5370, -15687, -3077, 4233, 322, -384, -319
5380, -15712, -3088, 4254, 313, -420, -312
5390, -15765, -3052, 4420, 311, -455, -309
5400, -15794, -3041, 4386, 324, -427, -319
5410, -15794, -3059, 4322, 306, -407, -305
5420, -15734, -3065, 4272, 309, -428, -300
5430, -15728, -3092, 4336, 343, -513, -286
5440, -15720, -3096, 4346, 337, -512, -288
5450, -15743, -3109, 4346, 351, -494, -289
5460, -15729, -3102, 4336, 369, -464, -298
5470, -15742, -3092, 4305, 368, -447, -296
5480, -15727, -3109, 4320, 353, -445, -303
5490, -15739, -3096, 4271, 356, -451, -310
5500, -15737, -3093, 4287, 323, -435, -289
5510, -15746, -3094, 4294, 328, -454, -292
5520, -15733, -3076, 4310, 316, -477, -297
5530, -15713, -3063, 4342, 318, -498, -302
5540, -15712, -3038, 4367, 324, -479, -285
5550, -15712, -3077, 4385, 325, -431, -288
5560, -15783, -3047, 4334, 316, -370, -301
5570, -15766, -3064, 4283, 338, -401, -302
5580, -15727, -3061, 4324, 329, -420, -302
5590, -15682, -3061, 4359, 365, -443, -315
5600, -15766, -3031, 4357, 347, -398, -316
5610, -15793, -3025, 4326, 325, -375, -305
5620, -15749, -3033, 4306, 337, -405, -306
5630, -15725, -3063, 4312, 324, -466, -303
5640, -15737, -3062, 4334, 332, -466, -314
5650, -15740, -3090, 4336, 349, -471, -320
5660, -15768, -3095, 4303, 333, -459, -319
5670, -15774, -3111, 4298, 354, -436, -314
5680, -15784, -3100, 4287, 342, -435, -318
5690, -15796, -3102, 4278, 329, -421, -312
5700, -15735, -3082, 4294, 333, -409, -294
5710, -15742, -3085, 4298, 319, -399, -294
5720, -15760, -3092, 4301, 323, -406, -292
5730, -15743, -3089, 4312, 314, -441, -299
5740, -15743, -3097, 4322, 344, -438, -298
5750, -15755, -3077, 4310, 324, -440, -305
5760, -15756, -3081, 4326, 304, -421, -297
5770, -15748, -3064, 4334, 328, -427, -304
5780, -15752, -3074, 4331, 336, -435, -306
5790, -15734, -3052, 4305, 331, -419, -311
5800, -15755, -3051, 4308, 307, -439, -312
5810, -15758, -3058, 4308, 311, -442, -314
5820, -15769, -3054, 4326, 331, -445, -320
5830, -15762, -3073, 4308, 322, -391, -302
5840, -15758, -3090, 4297, 321, -369, -293
5850, -15732, -3100, 4282, 332, -380, -302
5860, -15744, -3091, 4282, 336, -389, -304
5870, -15770, -3108, 4279, 322, -382, -305
5880, -15754, -3105, 4285, 339, -391, -316
5890, -15754, -3103, 4285, 316, -386, -301
5900, -15761, -3098, 4299, 331, -380, -306
5910, -15752, -3094, 4273, 329, -374, -303
5920, -15743, -3079, 4287, 319, -381, -308
5930, -15770, -3075, 4288, 339, -408, -324
5940, -15762, -3079, 4289, 331, -388, -314
5950, -15757, -3072, 4277, 312, -393, -314
5960, -15757, -3088, 4265, 319, -391, -302
5970, -15745, -3075, 4277, 338, -383, -308
5980, -15743, -3076, 4280, 358, -393, -319
5990, -15754, -3072, 4286, 333, -394, -320
6000, -15744, -3069, 4293, 346, -391, -319
6010, -15768, -3070, 4279, 337, -377, -308
6020, -15767, -3064, 4285, 312, -377, -313
6030, -15758, -3072, 4267, 330, -354, -302
6040, -15770, -3065, 4236, 318, -351, -309
6050, -15756, -3066, 4263, 326, -347, -318
6060, -15761, -3091, 4218, 349, -368, -328
6070, -15771, -3102, 4226, 318, -365, -311
6080, -15750, -3092, 4242, 360, -402, -309
6090, -15773, -3087, 4257, 337, -386, -308
6100, -15774, -3103, 4244, 319, -355, -307
6110, -15780, -3100, 4196, 345, -347, -310
6120, -15745, -3095, 4190, 317, -344, -294
6130, -15719, -3087, 4249, 313, -359, -286
6140, -15727, -3103, 4238, 317, -368, -304
6150, -15793, -3108, 4247, 366, -330, -303
6160, -15824, -3102, 4226, 366, -323, -334
6170, -15813, -3099, 4224, 342, -306, -328
6180, -15771, -3049, 4193, 314, -277, -311
6190, -15738, -3041, 4238, 346, -271, -320
6200, -15743, -3022, 4225, 321, -266, -331
6210, -15711, -3090, 4138, 318, -243, -340
6220, -15767, -3098, 4195, 347, -291, -345
6230, -15797, -3094, 4244, 313, -323, -345
6240, -15817, -3081, 4281, 303, -307, -339
6250, -15823, -3076, 4151, 286, -238, -330
6260, -15783, -3101, 4109, 327, -261, -325
6270, -15773, -3122, 4108, 342, -310, -317
6280, -15767, -3141, 4167, 347, -367, -313
6290, -15767, -3157, 4173, 336, -340, -296
6300, -15784, -3176, 4139, 346, -330, -293
6310, -15777, -3111, 4120, 349, -319, -307
6320, -15792, -3100, 4104, 346, -314, -316
6330, -15814, -3104, 4089, 340, -332, -314
6340, -15788, -3088, 4088, 339, -341, -314
6350, -15763, -3096, 4082, 336, -357, -303
6360, -15767, -3087, 4091, 341, -385, -310
6370, -15755, -3065, 4148, 349, -407, -319
6380, -15776, -3073, 4183, 314, -371, -291
6390, -15795, -3070, 4159, 340, -364, -319
6400, -15811, -3081, 4108, 327, -332, -323
6410, -15827, -3114, 4077, 338, -351, -322
6420, -15789, -3105, 4105, 355, -372, -325
6430, -15770, -3105, 4123, 356, -405, -326
6440, -15790, -3076, 4144, 309, -391, -310
6450, -15818, -3082, 4117, 341, -398, -323
6460, -15825, -3084, 4099, 333, -423, -327
6470, -15781, -3105, 4064, 325, -454, -307
6480, -15774, -3132, 4114, 344, -487, -306
6490, -15762, -3141, 4126, 331, -481, -308
6500, -15793, -3140, 4110, 342, -478, -308
6510, -15808, -3150, 4064, 357, -494, -310
6520, -15804, -3138, 4059, 331, -503, -311
6530, -15798, -3115, 4077, 347, -512, -302
6540, -15758, -3115, 4087, 334, -516, -294
6550, -15776, -3111, 4100, 311, -506, -290
6560, -15763, -3096, 4119, 344, -509, -282
6570, -15788, -3100, 4128, 327, -516, -294
6580, -15795, -3102, 4118, 310, -510, -289
6590, -15790, -3113, 4143, 314, -516, -289
6600, -15793, -3091, 4154, 387, -548, -312
6610, -15789, -3090, 4157, 329, -531, -295
6620, -15810, -3105, 4182, 336, -534, -300
6630, -15787, -3091, 4153, 340, -524, -292
6640, -15792, -3088, 4124, 352, -529, -293
6650, -15800, -3088, 4155, 352, -527, -295
6660, -15781, -3086, 4151, 339, -530, -286
6670, -15780, -3099, 4156, 353, -541, -289
6680, -15783, -3085, 4156, 330, -520, -280
6690, -15793, -3080, 4162, 332, -513, -281
6700, -15786, -3102, 4134, 328, -498, -286
6710, -15790, -3093, 4142, 323, -490, -293
6720, -15778, -3111, 4141, 340, -494, -298
6730, -15784, -3108, 4134, 345, -506, -314
6740, -15786, -3117, 4144, 340, -514, -310
6750, -15790, -3090, 4152, 327, -498, -298
6760, -15780, -3118, 4140, 334, -497, -300
6770, -15780, -3102, 4157, 315, -523, -286
6780, -15775, -3104, 4161, 346, -518, -295
6790, -15802, -3092, 4171, 341, -516, -287
6800, -15805, -3106, 4201, 321, -520, -289
6810, -15781, -3096, 4192, 337, -528, -298
6820, -15778, -3101, 4185, 346, -525, -290
6830, -15791, -3088, 4188, 344, -520, -303
6840, -15787, -3093, 4196, 359, -530, -304
6850, -15785, -3096, 4180, 342, -518, -279
6860, -15768, -3076, 4200, 356, -526, -286
6870, -15767, -3083, 4197, 350, -541, -294
6880, -15760, -3086, 4194, 335, -541, -286
6890, -15786, -3099, 4191, 338, -526, -290
6900, -15770, -3106, 4176, 339, -525, -269
6910, -15751, -3106, 4190, 366, -538, -275
6920, -15740, -3106, 4195, 348, -547, -279
6930, -15685, -3121, 4250, 338, -547, -285
6940, -15780, -3120, 4213, 343, -528, -285
6950, -15821, -3099, 4193, 359, -519, -300
6960, -15820, -3106, 4218, 361, -515, -311
6970, -15779, -3058, 4221, 293, -462, -278
6980, -15773, -3017, 4226, 325, -454, -290
6990, -15756, -3023, 4252, 335, -460, -302
7000, -15707, -3083, 4168, 313, -435, -312
7010, -15732, -3085, 4219, 307, -460, -324
7020, -15810, -3067, 4288, 309, -489, -326
7030, -15834, -3049, 4228, 294, -454, -308
7040, -15823, -3083, 4205, 300, -463, -294
7050, -15784, -3086, 4199, 325, -506, -294
7060, -15753, -3102, 4255, 308, -554, -284
7070, -15745, -3107, 4261, 351, -556, -285
7080, -15758, -3099, 4257, 355, -538, -290
7090, -15768, -3125, 4226, 384, -484, -290
7100, -15771, -3106, 4207, 354, -474, -290
7110, -15772, -3102, 4206, 333, -482, -287
7120, -15798, -3113, 4198, 346, -489, -295
7130, -15790, -3111, 4194, 362, -480, -289
7140, -15747, -3116, 4192, 356, -501, -291
7150, -15747, -3073, 4216, 347, -523, -290
7160, -15735, -3049, 4266, 354, -522, -289
7170, -15740, -3057, 4304, 334, -514, -298
7180, -15758, -3068, 4301, 331, -461, -299
7190, -15794, -3074, 4240, 347, -417, -313
7200, -15793, -3080, 4233, 323, -428, -324
7210, -15764, -3085, 4223, 365, -430, -308
7220, -15745, -3048, 4292, 356, -449, -309
7230, -15771, -3045, 4293, 323, -446, -315
7240, -15795, -3037, 4250, 320, -428, -288
7250, -15771, -3038, 4234, 324, -448, -296
7260, -15746, -3075, 4246, 349, -479, -285
7270, -15749, -3086, 4246, 346, -512, -305
7280, -15767, -3095, 4262, 328, -489, -302
7290, -15758, -3098, 4239, 333, -492, -310
7300, -15769, -3096, 4238, 335, -477, -310
7310, -15756, -3089, 4211, 320, -469, -298
7320, -15759, -3073, 4211, 302, -460, -289
7330, -15755, -3091, 4224, 345, -471, -303
7340, -15764, -3096, 4222, 369, -468, -307
7350, -15757, -3113, 4238, 337, -493, -302
7360, -15748, -3095, 4232, 340, -497, -291
7370, -15763, -3096, 4263, 326, -495, -296
7380, -15773, -3078, 4261, 353, -496, -307
7390, -15766, -3064, 4245, 364, -507, -299
7400, -15756, -3072, 4269, 327, -492, -286
7410, -15721, -3076, 4277, 314, -488, -282
7420, -15753, -3077, 4300, 320, -481, -291
7430, -15752, -3072, 4286, 343, -492, -303
7440, -15760, -3068, 4270, 339, -474, -310
7450, -15753, -3049, 4279, 349, -468, -305
7460, -15759, -3048, 4278, 337, -463, -307
7470, -15775, -3048, 4269, 341, -467, -307
7480, -15787, -3063, 4241, 338, -464, -301
7490, -15750, -3055, 4257, 330, -485, -316
7500, -15761, -3077, 4257, 329, -461, -303
7510, -15757, -3094, 4234, 343, -458, -312
7520, -15757, -3096, 4234, 348, -458, -311
7530, -15752, -3108, 4244, 331, -459, -307
7540, -15770, -3097, 4224, 346, -478, -310
7550, -15742, -3096, 4257, 353, -473, -286
7560, -15754, -3099, 4280, 340, -476, -291
7570, -15760, -3093, 4258, 343, -472, -302
7580, -15756, -3097, 4274, 328, -489, -292
7590, -15750, -3100, 4273, 333, -488, -301
7600, -15750, -3105, 4265, 322, -466, -299
7610, -15743, -3089, 4277, 348, -484, -297
7620, -15766, -3086, 4294, 355, -480, -285
7630, -15764, -3060, 4312, 341, -478, -296
7640, -15749, -3070, 4302, 343, -465, -292
7650, -15740, -3055, 4278, 361, -450, -305
7660, -15758, -3059, 4279, 328, -456, -311
7670, -15766, -3069, 4275, 330, -464, -298
7680, -15751, -3055, 4286, 349, -482, -299
7690, -15771, -3083, 4274, 352, -485, -296
7700, -15801, -3067, 4256, 337, -463, -279
7710, -15787, -3075, 4246, 334, -470, -279
7720, -15716, -3060, 4270, 347, -501, -300
7730, -15719, -3083, 4300, 322, -491, -291
7740, -15821, -3088, 4274, 338, -453, -309
7750, -15772, -3069, 4272, 327, -409, -305
7760, -15760, -3035, 4268, 326, -395, -290
7770, -15746, -3028, 4274, 317, -405, -305
7780, -15685, -3094, 4198, 333, -400, -312
7790, -15726, -3110, 4245, 309, -421, -316
7800, -15775, -3087, 4320, 317, -468, -317
7810, -15800, -3059, 4327, 315, -446, -313
7820, -15801, -3055, 4282, 289, -428, -296
7830, -15752, -3085, 4267, 301, -470, -302
7840, -15757, -3070, 4266, 318, -510, -302
7850, -15715, -3093, 4321, 333, -540, -299
7860, -15727, -3105, 4338, 349, -514, -275
7870, -15742, -3123, 4335, 353, -495, -287
7880, -15754, -3104, 4304, 376, -472, -308
7890, -15753, -3102, 4275, 349, -449, -294
7900, -15755, -3108, 4237, 336, -448, -301
7910, -15770, -3094, 4245, 331, -431, -280
7920, -15772, -3088, 4233, 321, -460, -288
7930, -15737, -3092, 4245, 330, -499, -296
7940, -15726, -3051, 4286, 323, -504, -289
7950, -15699, -3042, 4333, 338, -494, -296
7960, -15750, -3059, 4328, 338, -467, -314
7970, -15807, -3052, 4263, 347, -379, -305
7980, -15785, -3074, 4262, 315, -387, -304
7990, -15726, -3076, 4280, 334, -427, -311
8000, -15715, -3049, 4311, 364, -436, -305
8010, -15735, -3049, 4349, 314, -404, -290
8020, -15773, -3049, 4313, 319, -386, -292
8030, -15771, -3058, 4269, 338, -450, -309
8040, -15731, -3072, 4264, 338, -465, -299
8050, -15718, -3087, 4280, 335, -489, -301
8060, -15749, -3087, 4299, 333, -497, -310
8070, -15759, -3111, 4312, 358, -485, -319
8080, -15766, -3103, 4296, 353, -467, -302
8090, -15756, -3110, 4277, 339, -452, -292
8100, -15761, -3102, 4257, 331, -446, -302
8110, -15743, -3101, 4258, 348, -442, -301
8120, -15749, -3075, 4256, 330, -436, -296
8130, -15758, -3087, 4258, 351, -457, -296
8140, -15760, -3094, 4270, 328, -475, -293
8150, -15759, -3084, 4287, 330, -484, -301
8160, -15757, -3079, 4292, 340, -479, -307
8170, -15760, -3073, 4288, 356, -484, -299
8180, -15763, -3057, 4304, 342, -483, -301
8190, -15757, -3053, 4333, 336, -487, -302
8200, -15749, -3048, 4313, 321, -460, -288
8210, -15759, -3040, 4315, 349, -482, -313
8220, -15759, -3066, 4305, 345, -470, -308
8230, -15761, -3059, 4307, 341, -471, -303
8240, -15758, -3070, 4290, 331, -467, -294
8250, -15765, -3048, 4304, 363, -468, -300
8260, -15760, -3062, 4288, 352, -477, -302
8270, -15744, -3072, 4300, 349, -483, -301
8280, -15767, -3066, 4267, 342, -468, -296
8290, -15743, -3082, 4285, 346, -478, -303
8300, -15756, -3089, 4269, 330, -478, -313
8310, -15754, -3101, 4289, 325, -467, -302
8320, -15759, -3084, 4292, 343, -458, -303
8330, -15768, -3089, 4296, 333, -475, -312
8340, -15747, -3094, 4287, 353, -472, -303
8350, -15729, -3082, 4286, 347, -474, -287
8360, -15738, -3070, 4313, 331, -470, -288
8370, -15753, -3081, 4328, 344, -480, -308
8380, -15743, -3085, 4291, 337, -473, -303
8390, -15768, -3075, 4311, 312, -454, -295
8400, -15743, -3072, 4311, 342, -459, -294
8410, -15752, -3051, 4334, 349, -444, -287
8420, -15771, -3061, 4301, 337, -449, -293
8430, -15751, -3061, 4288, 311, -449, -297
8440, -15741, -3055, 4287, 360, -458, -294
8450, -15769, -3065, 4284, 344, -465, -294
8460, -15802, -3066, 4255, 336, -449, -285
8470, -15799, -3080, 4254, 347, -473, -294
8480, -15710, -3064, 4276, 356, -487, -292
8490, -15701, -3066, 4332, 352, -510, -283
8500, -15726, -3084, 4364, 329, -500, -288
8510, -15750, -3086, 4348, 346, -474, -310
8520, -15787, -3083, 4309, 353, -446, -307
8530, -15788, -3086, 4323, 319, -444, -308
8540, -15764, -3069, 4344, 326, -414, -314
8550, -15746, -3023, 4305, 297, -376, -294
8560, -15728, -3033, 4302, 321, -391, -298
8570, -15670, -3052, 4266, 314, -388, -311
8580, -15698, -3102, 4237, 315, -407, -314
8590, -15778, -3074, 4365, 326, -466, -329
8600, -15817, -3060, 4356, 332, -435, -325
8610, -15800, -3034, 4306, 325, -411, -321
8620, -15733, -3063, 4266, 315, -484, -307
8630, -15721, -3087, 4318, 334, -509, -297
8640, -15711, -3101, 4334, 348, -515, -281
8650, -15722, -3108, 4343, 358, -486, -283
8660, -15747, -3095, 4321, 318, -453, -277
8670, -15747, -3092, 4298, 372, -433, -293
8680, -15751, -3092, 4278, 351, -425, -299
8690, -15757, -3092, 4246, 328, -459, -298
8700, -15718, -3036, 4317, 340, -486, -299
8710, -15702, -3022, 4351, 360, -487, -308
8720, -15728, -3023, 4352, 336, -452, -308
8730, -15791, -3034, 4290, 323, -383, -332
8740, -15789, -3046, 4266, 316, -367, -309
8750, -15749, -3057, 4282, 318, -392, -310
8760, -15715, -3071, 4304, 322, -401, -284
8770, -15751, -3040, 4356, 335, -414, -301
8780, -15763, -3047, 4337, 326, -381, -304
8790, -15805, -3036, 4312, 335, -382, -305
8800, -15755, -3068, 4282, 346, -440, -304
8810, -15743, -3088, 4299, 316, -455, -296
8820, -15720, -3108, 4315, 330, -466, -304
8830, -15725, -3082, 4312, 329, -460, -309
8840, -15764, -3110, 4282, 343, -443, -316
8850, -15758, -3108, 4288, 344, -425, -320
8860, -15751, -3102, 4279, 324, -418, -304
8870, -15760, -3095, 4277, 333, -406, -308
8880, -15742, -3091, 4249, 332, -391, -302
8890, -15721, -3089, 4268, 341, -389, -299
8900, -15730, -3071, 4274, 321, -393, -307
8910, -15761, -3079, 4295, 353, -406, -310
8920, -15758, -3075, 4284, 346, -410, -320
8930, -15750, -3074, 4306, 338, -389, -310
8940, -15774, -3062, 4299, 342, -380, -310
8950, -15773, -3060, 4269, 337, -382, -308
8960, -15748, -3058, 4282, 339, -382, -301
8970, -15733, -3056, 4306, 331, -390, -308
8980, -15761, -3044, 4302, 324, -369, -299
8990, -15752, -3064, 4306, 331, -353, -312
9000, -15776, -3060, 4254, 314, -325, -296
9010, -15776, -3064, 4243, 314, -316, -304
9020, -15760, -3052, 4276, 327, -346, -308
9030, -15769, -3053, 4241, 312, -342, -301
9040, -15774, -3053, 4228, 285, -323, -302
9050, -15762, -3080, 4219, 314, -331, -306
9060, -15758, -3068, 4223, 325, -345, -310
9070, -15759, -3096, 4228, 346, -349, -314
9080, -15759, -3088, 4220, 345, -356, -312
9090, -15764, -3098, 4208, 321, -350, -311
9100, -15763, -3091, 4226, 339, -365, -325
9110, -15776, -3095, 4221, 347, -362, -307
9120, -15772, -3099, 4208, 339, -348, -307
9130, -15791, -3074, 4224, 340, -357, -305
9140, -15769, -3101, 4210, 343, -363, -313
9150, -15773, -3094, 4199, 333, -387, -317
9160, -15786, -3093, 4235, 343, -397, -311
9170, -15770, -3089, 4234, 353, -407, -322
9180, -15771, -3068, 4244, 337, -390, -313
9190, -15772, -3064, 4213, 373, -390, -311
9200, -15781, -3095, 4212, 331, -382, -297
9210, -15775, -3083, 4220, 363, -386, -307
9220, -15793, -3080, 4194, 361, -407, -309
9230, -15759, -3081, 4216, 342, -422, -298
9240, -15790, -3083, 4189, 373, -411, -300
9250, -15812, -3100, 4160, 368, -415, -316
9260, -15774, -3068, 4172, 348, -429, -305
9270, -15718, -3093, 4192, 316, -435, -278
9280, -15745, -3092, 4202, 311, -440, -284
9290, -15756, -3114, 4222, 312, -439, -296
9300, -15817, -3090, 4174, 357, -428, -311
9310, -15835, -3100, 4174, 360, -411, -312
9320, -15813, -3093, 4188, 344, -407, -311
9330, -15771, -3043, 4190, 295, -403, -298
9340, -15744, -3015, 4241, 334, -418, -315
9350, -15721, -3050, 4203, 312, -408, -321
9360, -15726, -3079, 4170, 311, -369, -324
9370, -15786, -3090, 4234, 332, -422, -343
9380, -15804, -3059, 4260, 289, -408, -320
9390, -15833, -3078, 4194, 283, -378, -325
9400, -15780, -3083, 4158, 309, -411, -300
9410, -15760, -3079, 4163, 330, -454, -304
9420, -15749, -3137, 4223, 374, -479, -293
9430, -15739, -3118, 4220, 369, -479, -305
9440, -15773, -3122, 4179, 351, -433, -289
9450, -15803, -3105, 4180, 346, -418, -288
9460, -15774, -3103, 4117, 334, -414, -287
9470, -15788, -3095, 4121, 349, -436, -313
9480, -15793, -3091, 4108, 343, -460, -305
9490, -15783, -3088, 4125, 334, -507, -310
9500, -15757, -3091, 4145, 343, -520, -302
9510, -15739, -3047, 4167, 354, -520, -303
9520, -15760, -3057, 4204, 334, -484, -293
9530, -15789, -3079, 4215, 318, -463, -321
9540, -15834, -3065, 4174, 345, -439, -316
9550, -15823, -3100, 4158, 352, -445, -316
9560, -15771, -3076, 4203, 325, -469, -309
9570, -15750, -3049, 4212, 355, -479, -308
9580, -15755, -3051, 4221, 335, -465, -300
9590, -15810, -3063, 4207, 343, -460, -313
9600, -15800, -3062, 4198, 334, -489, -314
9610, -15772, -3084, 4183, 321, -514, -310
9620, -15759, -3116, 4176, 320, -522, -305
9630, -15769, -3104, 4214, 358, -541, -302
9640, -15797, -3086, 4162, 351, -476, -304
9650, -15750, -3085, 4151, 316, -458, -293
9660, -15762, -3082, 4159, 340, -481, -317
9670, -15765, -3088, 4172, 323, -473, -295
9680, -15782, -3094, 4184, 325, -484, -295
9690, -15769, -3088, 4202, 323, -490, -290
9700, -15762, -3102, 4209, 331, -493, -296
9710, -15785, -3099, 4214, 330, -501, -299
9720, -15764, -3091, 4233, 329, -494, -297
9730, -15775, -3093, 4223, 342, -497, -288
9740, -15774, -3084, 4261, 321, -502, -284
9750, -15787, -3068, 4259, 323, -494, -303
9760, -15766, -3055, 4239, 348, -480, -299
9770, -15782, -3063, 4245, 348, -476, -303
9780, -15789, -3066, 4226, 334, -465, -304
9790, -15776, -3071, 4218, 350, -471, -306
9800, -15777, -3063, 4217, 352, -481, -306
9810, -15764, -3059, 4216, 330, -472, -300
9820, -15760, -3068, 4198, 307, -463, -288
9830, -15762, -3076, 4216, 331, -475, -292
9840, -15784, -3087, 4187, 340, -488, -310
9850, -15765, -3088, 4200, 338, -463, -286
9860, -15768, -3104, 4205, 321, -466, -296
9870, -15773, -3084, 4197, 335, -485, -300
9880, -15768, -3091, 4216, 341, -475, -290
9890, -15753, -3096, 4201, 341, -484, -295
9900, -15778, -3099, 4214, 335, -499, -293
9910, -15785, -3092, 4240, 356, -499, -299
9920, -15778, -3090, 4231, 343, -505, -282
9930, -15763, -3092, 4248, 343, -519, -296
9940, -15791, -3082, 4266, 344, -513, -311
9950, -15776, -3062, 4266, 341, -492, -289
9960, -15752, -3072, 4269, 348, -487, -303
9970, -15759, -3078, 4237, 358, -501, -301
9980, -15766, -3068, 4234, 350, -502, -291
9990, -15725, -3088, 4234, 353, -517, -289
10000, -15756, -3076, 4238, 339, -519, -292
10010, -15797, -3076, 4235, 350, -497, -280
10020, -15774, -3064, 4236, 340, -504, -285
10030, -15753, -3089, 4240, 340, -515, -291
10040, -15716, -3082, 4264, 323, -529, -291
10050, -15729, -3094, 4274, 327, -531, -301
10060, -15743, -3082, 4281, 328, -507, -301
10070, -15815, -3080, 4245, 337, -484, -299
10080, -15800, -3080, 4245, 333, -468, -309
10090, -15771, -3070, 4242, 313, -438, -306
10100, -15764, -3031, 4242, 329, -452, -323
10110, -15731, -3046, 4244, 327, -456, -304
10120, -15701, -3085, 4195, 325, -465, -305
10130, -15755, -3100, 4269, 320, -502, -324
10140, -15783, -3069, 4322, 325, -515, -310
10150, -15807, -3060, 4312, 304, -483, -309
10160, -15772, -3074, 4243, 312, -465, -294
10170, -15733, -3086, 4248, 327, -504, -297
10180, -15711, -3093, 4260, 338, -536, -287
10190, -15741, -3102, 4299, 346, -525, -270
10200, -15732, -3113, 4310, 336, -500, -274
10210, -15746, -3111, 4302, 364, -491, -281
10220, -15767, -3110, 4261, 347, -470, -288
10230, -15760, -3083, 4255, 328, -465, -301
10240, -15760, -3089, 4244, 318, -463, -301
10250, -15770, -3095, 4227, 328, -455, -295
10260, -15771, -3087, 4204, 342, -471, -302
10270, -15744, -3063, 4264, 325, -510, -297
10280, -15725, -3038, 4271, 341, -529, -293
10290, -15718, -3010, 4305, 332, -498, -295
10300, -15776, -3036, 4306, 331, -433, -306
10310, -15800, -3043, 4276, 337, -402, -303
10320, -15798, -3067, 4248, 333, -410, -307
10330, -15742, -3075, 4269, 368, -436, -320
10340, -15731, -3059, 4289, 346, -441, -301
10350, -15769, -3031, 4290, 341, -433, -312
10360, -15792, -3035, 4260, 319, -428, -291
10370, -15793, -3051, 4259, 320, -472, -304
10380, -15752, -3062, 4280, 312, -492, -293
10390, -15735, -3092, 4311, 333, -528, -312
10400, -15735, -3104, 4312, 349, -508, -305
10410, -15764, -3089, 4308, 347, -480, -300
10420, -15758, -3100, 4262, 348, -456, -299
10430, -15756, -3089, 4256, 319, -450, -297
10440, -15742, -3090, 4247, 322, -451, -304
10450, -15760, -3081, 4281, 318, -442, -301
10460, -15746, -3073, 4245, 331, -464, -307
10470, -15760, -3098, 4254, 323, -460, -299
10480, -15732, -3110, 4255, 335, -474, -300
10490, -15757, -3090, 4273, 325, -472, -293
10500, -15763, -3069, 4278, 331, -476, -288
10510, -15748, -3070, 4276, 337, -485, -296
10520, -15749, -3063, 4280, 333, -476, -286
10530, -15757, -3068, 4298, 340, -486, -304
10540, -15745, -3071, 4299, 337, -470, -289
10550, -15769, -3042, 4322, 331, -474, -301
10560, -15750, -3070, 4276, 306, -447, -295
10570, -15782, -3054, 4295, 329, -464, -296
10580, -15761, -3055, 4285, 334, -473, -295
10590, -15748, -3055, 4285, 321, -465, -302
10600, -15751, -3070, 4275, 315, -478, -306
10610, -15744, -3073, 4271, 373, -471, -303
10620, -15760, -3093, 4260, 318, -463, -297
10630, -15766, -3114, 4282, 323, -463, -294
10640, -15745, -3090, 4278, 302, -480, -301
10650, -15747, -3080, 4296, 311, -467, -294
10660, -15744, -3081, 4287, 336, -473, -297
10670, -15757, -3073, 4274, 371, -484, -309
10680, -15746, -3071, 4312, 316, -469, -298
10690, -15748, -3066, 4306, 340, -484, -302
10700, -15750, -3085, 4303, 343, -480, -294
10710, -15765, -3054, 4327, 326, -479, -301
10720, -15760, -3056, 4331, 309, -450, -287
10730, -15757, -3068, 4313, 328, -441, -290
10740, -15761, -3069, 4277, 327, -442, -292
10750, -15748, -3057, 4277, 375, -458, -298
10760, -15750, -3047, 4299, 345, -470, -293
10770, -15724, -3053, 4307, 359, -486, -298
10780, -15777, -3070, 4258, 356, -486, -314
10790, -15767, -3062, 4264, 332, -488, -300
10800, -15727, -3060, 4313, 330, -499, -278
10810, -15706, -3072, 4332, 335, -510, -286
10820, -15710, -3085, 4337, 321, -496, -301
10830, -15793, -3063, 4299, 337, -458, -307
10840, -15786, -3071, 4294, 359, -446, -298
10850, -15786, -3086, 4308, 338, -448, -320
10860, -15745, -3060, 4305, 314, -413, -311
10870, -15747, -3032, 4301, 280, -391, -292
10880, -15723, -3026, 4286, 302, -401, -297
10890, -15680, -3062, 4253, 314, -398, -294
10900, -15739, -3057, 4340, 330, -475, -332
10910, -15772, -3048, 4386, 320, -484, -337
10920, -15817, -3048, 4339, 314, -432, -335
10930, -15787, -3066, 4253, 303, -454, -317
10940, -15733, -3070, 4277, 346, -518, -307
10950, -15725, -3079, 4321, 347, -517, -285
10960, -15727, -3086, 4295, 336, -512, -278
10970, -15758, -3093, 4324, 334, -489, -292
10980, -15752, -3102, 4322, 325, -467, -284
10990, -15736, -3085, 4297, 320, -444, -284
11000, -15753, -3079, 4264, 346, -439, -305
11010, -15761, -3088, 4274, 355, -448, -304
11020, -15771, -3061, 4270, 331, -448, -299
11030, -15755, -3073, 4244, 316, -460, -286
11040, -15758, -3062, 4269, 326, -487, -285
11050, -15712, -3052, 4316, 337, -505, -306
11060, -15725, -3038, 4356, 342, -464, -307
11070, -15774, -3043, 4349, 330, -403, -299
11080, -15810, -3042, 4298, 325, -365, -301
11090, -15757, -3066, 4256, 336, -398, -301
11100, -15733, -3059, 4303, 345, -427, -284
11110, -15714, -3055, 4344, 356, -443, -310
11120, -15768, -3038, 4340, 350, -398, -295
11130, -15777, -3032, 4297, 326, -394, -293
11140, -15776, -3051, 4258, 344, -426, -305
11150, -15739, -3060, 4274, 339, -459, -293
11160, -15728, -3071, 4294, 346, -487, -307
11170, -15748, -3093, 4295, 372, -497, -321
11180, -15754, -3078, 4316, 343, -480, -316
11190, -15740, -3111, 4280, 343, -473, -308
11200, -15738, -3103, 4282, 340, -448, -302
11210, -15741, -3080, 4266, 342, -441, -297
11220, -15719, -3075, 4275, 328, -437, -290
11230, -15736, -3070, 4286, 345, -440, -298
11240, -15733, -3079, 4282, 337, -441, -300
11250, -15764, -3056, 4299, 349, -460, -299
11260, -15751, -3069, 4306, 341, -458, -299
11270, -15759, -3086, 4321, 322, -471, -290
11280, -15760, -3059, 4327, 354, -486, -314
11290, -15733, -3049, 4310, 333, -474, -304
11300, -15739, -3045, 4322, 315, -462, -299
11310, -15743, -3046, 4312, 328, -452, -298
11320, -15752, -3055, 4315, 334, -443, -296
11330, -15748, -3065, 4316, 342, -456, -309
11340, -15768, -3043, 4298, 346, -472, -302
11350, -15773, -3061, 4300, 341, -469, -305
11360, -15773, -3043, 4332, 352, -468, -303
11370, -15755, -3055, 4318, 369, -476, -304
11380, -15741, -3064, 4307, 350, -470, -306
11390, -15772, -3068, 4299, 326, -453, -297
11400, -15763, -3068, 4281, 339, -461, -299
11410, -15732, -3065, 4292, 350, -470, -305
11420, -15749, -3069, 4289, 360, -466, -305
11430, -15733, -3081, 4301, 335, -463, -309
11440, -15737, -3084, 4304, 314, -458, -308
11450, -15757, -3090, 4298, 315, -466, -288
11460, -15747, -3067, 4312, 351, -474, -285
11470, -15738, -3074, 4329, 359, -468, -292
11480, -15777, -3071, 4320, 351, -466, -307
11490, -15756, -3083, 4331, 325, -469, -305
11500, -15750, -3049, 4317, 335, -451, -298
11510, -15752, -3041, 4313, 346, -459, -295
11520, -15753, -3061, 4309, 334, -438, -292
11530, -15744, -3037, 4309, 346, -483, -302
11540, -15744, -3054, 4314, 356, -459, -297
11550, -15769, -3065, 4300, 336, -462, -307
11560, -15808, -3059, 4300, 321, -456, -295
11570, -15723, -3057, 4287, 345, -485, -278
11580, -15706, -3057, 4320, 328, -520, -283
11590, -15679, -3032, 4366, 329, -523, -290
11600, -15763, -3091, 4352, 368, -460, -296
11610, -15798, -3069, 4326, 333, -451, -302
11620, -15802, -3072, 4332, 345, -444, -313
11630, -15814, -3084, 4337, 350, -425, -325
11640, -15747, -3037, 4305, 346, -394, -296
11650, -15753, -3015, 4317, 314, -406, -311
11660, -15691, -3033, 4324, 315, -404, -315
11670, -15709, -3071, 4254, 273, -403, -304
11680, -15752, -3075, 4348, 308, -441, -321
11690, -15778, -3061, 4413, 327, -453, -321
11700, -15795, -3042, 4301, 316, -414, -315
11710, -15756, -3055, 4280, 277, -427, -288
11720, -15727, -3083, 4293, 313, -487, -295
11730, -15720, -3101, 4366, 374, -519, -294
11740, -15740, -3092, 4350, 351, -481, -282
11750, -15749, -3103, 4349, 358, -469, -284
11760, -15736, -3090, 4297, 345, -434, -291
11770, -15766, -3078, 4298, 336, -428, -300
11780, -15739, -3086, 4291, 335, -414, -291
11790, -15775, -3081, 4265, 315, -422, -302
11800, -15773, -3069, 4259, 333, -443, -280
11810, -15738, -3072, 4285, 338, -472, -297
11820, -15729, -3058, 4290, 323, -475, -295
11830, -15712, -3024, 4364, 348, -463, -284
11840, -15739, -3019, 4368, 341, -447, -301
11850, -15763, -3042, 4339, 349, -410, -318
11860, -15795, -3050, 4275, 330, -382, -313
11870, -15757, -3061, 4276, 341, -413, -323
11880, -15718, -3049, 4317, 326, -439, -310
11890, -15719, -3062, 4364, 338, -433, -307
11900, -15770, -3039, 4339, 323, -392, -305
11910, -15788, -3049, 4309, 346, -391, -299
11920, -15788, -3031, 4292, 339, -430, -310
11930, -15720, -3071, 4310, 355, -491, -321
11940, -15727, -3081, 4327, 351, -482, -320
11950, -15739, -3093, 4317, 338, -472, -311
11960, -15741, -3085, 4335, 340, -449, -311
11970, -15749, -3113, 4315, 300, -427, -314
11980, -15732, -3096, 4274, 325, -409, -300
11990, -15754, -3058, 4280, 309, -386, -293
12000, -15759, -3078, 4254, 348, -398, -301
12010, -15724, -3081, 4255, 334, -402, -317
12020, -15757, -3085, 4301, 370, -430, -301
12030, -15763, -3086, 4292, 328, -431, -317
12040, -15743, -3072, 4298, 329, -428, -312
12050, -15746, -3072, 4306, 344, -431, -309
12060, -15761, -3064, 4303, 343, -409, -301
12070, -15738, -3054, 4291, 333, -404, -303
12080, -15755, -3029, 4309, 332, -396, -303
12090, -15754, -3038, 4304, 326, -383, -302
12100, -15760, -3048, 4287, 308, -397, -302
12110, -15757, -3038, 4295, 321, -384, -301
12120, -15767, -3060, 4289, 326, -383, -289
12130, -15782, -3062, 4281, 319, -408, -306
12140, -15743, -3027, 4305, 326, -400, -301
12150, -15752, -3056, 4304, 356, -390, -323
12160, -15754, -3064, 4277, 342, -367, -311
12170, -15757, -3075, 4268, 349, -373, -321
12180, -15754, -3070, 4254, 355, -372, -323
12190, -15752, -3082, 4256, 323, -371, -308
12200, -15747, -3082, 4255, 344, -367, -302
12210, -15769, -3070, 4255, 322, -362, -297
12220, -15777, -3079, 4266, 329, -370, -316
12230, -15760, -3059, 4263, 336, -370, -323
12240, -15752, -3085, 4261, 305, -359, -305
12250, -15758, -3080, 4255, 328, -374, -307
12260, -15737, -3064, 4256, 326, -380, -309
12270, -15772, -3076, 4272, 315, -376, -323
12280, -15768, -3075, 4251, 335, -372, -328
12290, -15773, -3072, 4261, 343, -365, -319
12300, -15748, -3068, 4240, 326, -349, -310
12310, -15766, -3062, 4236, 333, -348, -302
12320, -15783, -3073, 4247, 325, -347, -316
12330, -15768, -3088, 4214, 342, -365, -305
12340, -15750, -3078, 4215, 331, -373, -287
12350, -15767, -3081, 4211, 361, -407, -308
12360, -15735, -3079, 4245, 362, -409, -306
12370, -15784, -3095, 4194, 327, -392, -314
12380, -15791, -3098, 4161, 339, -393, -312
12390, -15774, -3081, 4178, 341, -399, -297
12400, -15722, -3105, 4224, 342, -412, -301
12410, -15740, -3107, 4237, 346, -414, -313
12420, -15776, -3107, 4213, 322, -387, -312
12430, -15777, -3046, 4222, 322, -375, -310
12440, -15747, -3014, 4234, 306, -375, -314
12450, -15726, -3075, 4186, 298, -358, -322
12460, -15726, -3094, 4177, 345, -362, -333
12470, -15768, -3069, 4236, 325, -388, -335
12480, -15799, -3074, 4242, 307, -400, -331
12490, -15811, -3060, 4187, 276, -339, -314
12500, -15805, -3080, 4144, 314, -362, -312
12510, -15790, -3088, 4136, 338, -399, -306
12520, -15727, -3109, 4217, 370, -459, -289
12530, -15743, -3113, 4213, 347, -438, -290
12540, -15766, -3121, 4202, 339, -417, -294
12550, -15789, -3114, 4186, 337, -400, -296
12560, -15785, -3103, 4151, 326, -385, -294
12570, -15789, -3097, 4135, 356, -416, -312
12580, -15803, -3108, 4153, 339, -439, -311
12590, -15774, -3094, 4120, 340, -451, -307
12600, -15749, -3087, 4142, 357, -483, -305
12610, -15749, -3090, 4154, 322, -496, -293
12620, -15760, -3057, 4194, 325, -505, -300
12630, -15779, -3070, 4218, 366, -475, -317
12640, -15825, -3088, 4204, 324, -437, -316
12650, -15832, -3082, 4163, 328, -417, -310
12660, -15768, -3079, 4160, 333, -465, -311
12670, -15744, -3056, 4187, 359, -483, -310
12680, -15786, -3042, 4240, 346, -478, -311
12690, -15802, -3037, 4206, 344, -458, -302
12700, -15798, -3064, 4180, 349, -475, -310
12710, -15759, -3083, 4212, 363, -514, -299
12720, -15749, -3102, 4219, 330, -513, -287
12730, -15752, -3093, 4220, 346, -523, -299
12740, -15759, -3112, 4210, 354, -511, -313
12750, -15782, -3104, 4180, 331, -484, -326
12760, -15788, -3088, 4174, 338, -483, -312
12770, -15795, -3103, 4141, 341, -474, -316
12780, -15759, -3075, 4152, 303, -471, -300
12790, -15760, -3084, 4170, 328, -498, -312
12800, -15774, -3092, 4192, 346, -498, -298
12810, -15759, -3102, 4207, 317, -500, -312
12820, -15765, -3097, 4227, 341, -476, -288
12830, -15780, -3099, 4223, 310, -481, -291
12840, -15768, -3085, 4205, 333, -485, -288
12850, -15783, -3089, 4203, 311, -489, -295
12860, -15760, -3078, 4233, 338, -496, -292
12870, -15759, -3090, 4213, 328, -503, -293
12880, -15761, -3052, 4230, 329, -512, -319
12890, -15746, -3061, 4229, 331, -492, -311
12900, -15773, -3063, 4238, 333, -470, -299
12910, -15780, -3072, 4201, 324, -456, -279
12920, -15780, -3083, 4233, 339, -484, -286
12930, -15767, -3079, 4214, 318, -471, -287
12940, -15751, -3073, 4217, 349, -498, -304
12950, -15751, -3064, 4229, 327, -494, -314
12960, -15760, -3082, 4233, 333, -480, -318
12970, -15771, -3095, 4193, 372, -481, -306
12980, -15766, -3083, 4176, 337, -476, -300
12990, -15782, -3101, 4200, 332, -482, -298
13000, -15770, -3086, 4206, 348, -503, -290
13010, -15764, -3089, 4237, 340, -514, -305
13020, -15767, -3092, 4253, 330, -510, -300
13030, -15768, -3086, 4241, 306, -511, -305
13040, -15765, -3083, 4237, 330, -502, -297
13050, -15775, -3092, 4255, 335, -503, -291
13060, -15760, -3073, 4253, 319, -495, -289
13070, -15767, -3074, 4261, 324, -503, -296
13080, -15773, -3064, 4273, 323, -484, -292
13090, -15783, -3077, 4239, 332, -480, -298
13100, -15775, -3077, 4236, 314, -455, -287
13110, -15753, -3066, 4240, 338, -468, -283
13120, -15741, -3059, 4256, 352, -499, -278
13130, -15761, -3073, 4229, 303, -492, -284
13140, -15783, -3078, 4219, 328, -496, -292
13150, -15773, -3057, 4240, 358, -519, -286
13160, -15739, -3049, 4266, 318, -521, -281
13170, -15721, -3063, 4270, 320, -515, -282
13180, -15760, -3093, 4265, 347, -493, -295
13190, -15796, -3073, 4243, 331, -480, -300
13200, -15807, -3087, 4246, 339, -481, -309
13210, -15800, -3079, 4282, 346, -465, -314
13220, -15756, -3042, 4247, 307, -418, -310
13230, -15773, -3034, 4242, 301, -418, -301
13240, -15715, -3046, 4248, 316, -433, -313
13250, -15716, -3083, 4208, 304, -431, -329
13260, -15761, -3084, 4268, 306, -464, -328
13270, -15795, -3037, 4319, 319, -477, -335
13280, -15805, -3048, 4271, 322, -443, -309
13290, -15785, -3075, 4233, 311, -446, -300
13300, -15733, -3071, 4231, 308, -480, -295
13310, -15737, -3091, 4239, 330, -519, -299
13320, -15772, -3104, 4291, 341, -519, -283
13330, -15749, -3107, 4280, 354, -524, -291
13340, -15750, -3103, 4286, 364, -502, -284
13350, -15758, -3090, 4261, 358, -460, -284
13360, -15758, -3094, 4189, 331, -467, -292
13370, -15740, -3070, 4241, 330, -524, -299
13380, -15719, -3044, 4281, 292, -516, -287
13390, -15736, -3024, 4323, 341, -519, -309
13400, -15726, -3052, 4350, 335, -487, -305
13410, -15808, -3041, 4288, 330, -400, -309
13420, -15814, -3070, 4255, 333, -406, -320
13430, -15800, -3088, 4263, 355, -410, -321
13440, -15740, -3044, 4295, 337, -448, -299
13450, -15745, -3046, 4315, 316, -443, -299
13460, -15782, -3045, 4296, 313, -419, -301
13470, -15803, -3044, 4288, 302, -405, -304
13480, -15744, -3074, 4246, 308, -471, -308
13490, -15741, -3079, 4275, 331, -494, -303
13500, -15739, -3099, 4258, 326, -506, -301
13510, -15758, -3103, 4274, 344, -490, -313
13520, -15778, -3103, 4268, 342, -473, -304
13530, -15775, -3105, 4256, 334, -457, -302
13540, -15763, -3109, 4240, 330, -448, -308
13550, -15752, -3065, 4224, 318, -435, -299
13560, -15753, -3068, 4221, 349, -437, -297
13570, -15735, -3065, 4234, 335, -460, -287
13580, -15760, -3067, 4249, 368, -489, -306
13590, -15759, -3085, 4282, 351, -478, -304
13600, -15767, -3079, 4255, 344, -484, -307
13610, -15759, -3065, 4254, 351, -512, -298
13620, -15761, -3080, 4280, 329, -486, -277
13630, -15748, -3070, 4289, 324, -491, -273
13640, -15753, -3050, 4321, 337, -486, -303
13650, -15740, -3047, 4316, 335, -468, -293
13660, -15733, -3064, 4307, 342, -482, -299
13670, -15765, -3063, 4287, 370, -455, -297
13680, -15762, -3063, 4273, 333, -458, -300
13690, -15757, -3071, 4266, 330, -472, -301
13700, -15765, -3072, 4275, 336, -462, -284
13710, -15750, -3064, 4272, 340, -470, -299
13720, -15754, -3083, 4254, 333, -470, -290
13730, -15755, -3074, 4258, 338, -468, -297
13740, -15771, -3064, 4267, 349, -467, -302
13750, -15762, -3079, 4280, 372, -478, -315
13760, -15762, -3079, 4269, 341, -464, -314
13770, -15767, -3082, 4290, 321, -477, -305
13780, -15767, -3073, 4284, 321, -464, -288
13790, -15739, -3066, 4298, 316, -475, -288
13800, -15778, -3070, 4288, 340, -491, -305
13810, -15756, -3080, 4301, 364, -484, -306
13820, -15765, -3064, 4305, 342, -487, -295
13830, -15735, -3069, 4273, 331, -489, -292
13840, -15757, -3064, 4297, 324, -490, -295
13850, -15770, -3066, 4294, 321, -493, -296
13860, -15765, -3049, 4317, 322, -479, -284
13870, -15757, -3059, 4321, 309, -461, -291
13880, -15763, -3049, 4320, 347, -457, -298
13890, -15776, -3057, 4306, 359, -453, -296
13900, -15751, -3056, 4284, 327, -442, -305
13910, -15729, -3055, 4291, 358, -464, -307
13920, -15737, -3043, 4302, 355, -481, -296
13930, -15785, -3092, 4263, 306, -452, -292
13940, -15794, -3094, 4254, 350, -466, -289
13950, -15765, -3078, 4256, 316, -481, -278
13960, -15739, -3074, 4288, 305, -495, -277
13970, -15708, -3089, 4332, 313, -498, -295
13980, -15748, -3102, 4332, 353, -481, -296
13990, -15789, -3082, 4298, 354, -466, -305
14000, -15802, -3067, 4336, 355, -453, -317
14010, -15759, -3073, 4335, 347, -423, -306
14020, -15770, -3047, 4292, 314, -386, -295
14030, -15763, -3004, 4289, 311, -406, -310
14040, -15712, -3053, 4272, 323, -409, -306
14050, -15713, -3071, 4271, 277, -433, -314
14060, -15750, -3063, 4352, 319, -467, -316
14070, -15806, -3040, 4329, 294, -428, -319
14080, -15793, -3059, 4306, 273, -412, -303
14090, -15756, -3065, 4275, 303, -447, -305
14100, -15720, -3080, 4322, 328, -508, -301
14110, -15732, -3088, 4330, 324, -497, -291
14120, -15744, -3086, 4322, 342, -479, -294
14130, -15781, -3088, 4315, 357, -470, -297
14140, -15752, -3085, 4287, 324, -452, -307
14150, -15759, -3092, 4280, 331, -451, -310
14160, -15746, -3078, 4277, 334, -426, -308
14170, -15778, -3081, 4254, 335, -436, -303
14180, -15755, -3080, 4260, 340, -456, -294
14190, -15754, -3058, 4255, 310, -474, -286
14200, -15756, -3026, 4266, 302, -486, -292
14210, -15710, -3021, 4347, 319, -473, -296
14220, -15764, -3027, 4361, 318, -447, -301
14230, -15787, -3056, 4345, 322, -401, -310
14240, -15794, -3073, 4252, 306, -377, -315
14250, -15748, -3080, 4276, 323, -403, -304
14260, -15716, -3067, 4318, 351, -441, -316
14270, -15711, -3034, 4374, 353, -451, -305
14280, -15784, -3050, 4323, 315, -404, -312
14290, -15737, -3087, 4317, 349, -486, -316
14300, -15740, -3084, 4307, 363, -484, -311
14310, -15772, -3089, 4298, 333, -473, -315
14320, -15761, -3104, 4289, 311, -441, -307
14330, -15762, -3097, 4285, 367, -443, -307
14340, -15756, -3087, 4256, 349, -447, -303
14350, -15736, -3072, 4271, 328, -435, -303
14360, -15744, -3068, 4271, 333, -441, -296
14370, -15731, -3058, 4283, 335, -438, -283
14380, -15761, -3078, 4286, 353, -449, -287
14390, -15765, -3048, 4316, 347, -459, -298
14400, -15761, -3071, 4293, 325, -463, -288
14410, -15768, -3068, 4300, 343, -486, -309
14420, -15756, -3062, 4304, 328, -472, -306
14430, -15738, -3043, 4314, 360, -476, -293
14440, -15745, -3034, 4331, 341, -463, -295
14450, -15730, -3033, 4329, 326, -447, -310
14460, -15753, -3054, 4315, 337, -466, -315
14470, -15764, -3045, 4306, 370, -468, -320
14480, -15752, -3048, 4297, 339, -447, -303
14490, -15774, -3064, 4281, 331, -460, -296
14500, -15754, -3066, 4294, 327, -476, -312
14510, -15754, -3053, 4289, 332, -469, -310
14520, -15742, -3081, 4283, 356, -468, -303
14530, -15756, -3076, 4293, 321, -455, -297
14540, -15742, -3069, 4279, 324, -458, -309
14550, -15758, -3083, 4299, 326, -443, -301
14560, -15761, -3079, 4289, 341, -464, -306
14570, -15752, -3081, 4294, 351, -453, -298
14580, -15738, -3053, 4282, 328, -469, -299
14590, -15736, -3066, 4324, 315, -453, -298
14600, -15750, -3066, 4306, 293, -459, -302
14610, -15742, -3070, 4330, 323, -468, -306
14620, -15741, -3082, 4341, 334, -448, -295
14630, -15765, -3073, 4317, 351, -448, -302
14640, -15762, -3068, 4314, 316, -434, -293
14650, -15771, -3060, 4326, 333, -437, -302
14660, -15751, -3072, 4323, 374, -434, -310
14670, -15742, -3049, 4329, 361, -407, -308
14680, -15767, -3061, 4314, 334, -392, -311
14690, -15763, -3048, 4300, 358, -390, -313
14700, -15760, -3043, 4285, 348, -387, -313
14710, -15748, -3063, 4287, 332, -382, -291
14720, -15744, -3028, 4298, 357, -393, -298
14730, -15753, -3066, 4286, 330, -405, -319
14740, -15775, -3080, 4273, 322, -387, -304
14750, -15750, -3070, 4269, 345, -398, -294
14760, -15712, -3061, 4286, 334, -397, -285
14770, -15694, -3070, 4305, 327, -407, -294
14780, -15738, -3064, 4325, 358, -348, -321
14790, -15787, -3076, 4281, 343, -323, -328
14800, -15796, -3072, 4283, 355, -303, -318
14810, -15781, -3088, 4302, 341, -306, -317
14820, -15760, -3053, 4264, 341, -259, -305
14830, -15766, -3029, 4252, 313, -268, -313
14840, -15747, -3025, 4260, 301, -277, -331
14850, -15685, -3080, 4190, 316, -284, -324
14860, -15729, -3074, 4246, 317, -311, -334
14870, -15777, -3062, 4297, 297, -342, -333
14880, -15799, -3044, 4269, 345, -308, -344
14890, -15807, -3060, 4214, 293, -253, -321
14900, -15788, -3064, 4171, 332, -289, -328
14910, -15746, -3096, 4215, 348, -381, -308
14920, -15756, -3108, 4225, 342, -396, -315
14930, -15745, -3107, 4220, 336, -380, -312
14940, -15772, -3126, 4228, 339, -356, -305
14950, -15774, -3102, 4157, 337, -351, -309
14960, -15779, -3091, 4171, 343, -344, -303
14970, -15766, -3092, 4151, 337, -360, -310
14980, -15789, -3080, 4159, 323, -388, -307
14990, -15779, -3086, 4169, 343, -397, -316
15000, -15750, -3075, 4170, 336, -424, -304
15010, -15751, -3033, 4229, 362, -438, -308
15020, -15744, -3034, 4252, 312, -408, -297
15030, -15762, -3042, 4256, 311, -386, -310
15040, -15834, -3048, 4192, 319, -323, -319
15050, -15806, -3064, 4160, 312, -324, -318
15060, -15772, -3068, 4152, 334, -369, -327
15070, -15752, -3060, 4194, 375, -403, -320
15080, -15780, -3052, 4204, 350, -419, -328
15090, -15791, -3038, 4179, 346, -409, -327
15100, -15803, -3026, 4169, 339, -413, -312
15110, -15773, -3097, 4168, 364, -478, -307
15120, -15751, -3125, 4197, 358, -486, -302
15130, -15735, -3137, 4223, 349, -460, -301
15140, -15792, -3146, 4188, 332, -425, -305
15150, -15772, -3152, 4162, 331, -410, -311
15160, -15784, -3138, 4155, 349, -400, -296
15170, -15781, -3126, 4146, 357, -409, -290
15180, -15764, -3082, 4122, 375, -436, -315
15190, -15774, -3075, 4160, 318, -444, -305
15200, -15799, -3078, 4161, 335, -461, -311
15210, -15785, -3079, 4166, 344, -469, -291
15220, -15768, -3020, 4177, 330, -499, -299
15230, -15803, -3005, 4171, 336, -491, -306
15240, -15789, -3025, 4176, 296, -484, -288
15250, -15784, -3010, 4159, 326, -511, -315
15260, -15785, -3077, 4187, 350, -538, -312
15270, -15788, -3069, 4193, 351, -555, -315
15280, -15763, -3078, 4201, 353, -525, -293
15290, -15790, -3086, 4237, 343, -507, -293
15300, -15764, -3107, 4217, 333, -489, -298
15310, -15756, -3099, 4223, 334, -493, -297
15320, -15763, -3124, 4235, 336, -497, -303
15330, -15765, -3116, 4235, 334, -507, -309
15340, -15758, -3119, 4205, 322, -506, -301
15350, -15775, -3124, 4217, 323, -500, -296
15360, -15781, -3117, 4200, 323, -507, -319
15370, -15792, -3127, 4178, 301, -475, -296
15380, -15778, -3111, 4179, 318, -486, -296
15390, -15740, -3111, 4155, 325, -506, -293
15400, -15755, -3081, 4187, 336, -501, -277
15410, -15770, -3065, 4195, 343, -509, -288
15420, -15790, -3059, 4187, 347, -508, -292
15430, -15798, -3063, 4155, 362, -515, -297
15440, -15794, -3077, 4166, 363, -536, -296
15450, -15820, -3072, 4165, 341, -544, -287
15460, -15763, -3038, 4232, 346, -549, -275
15470, -15773, -3029, 4272, 364, -568, -299
15480, -15771, -3026, 4291, 369, -551, -299
15490, -15761, -3024, 4258, 297, -497, -279
15500, -15770, -3030, 4245, 306, -490, -289
15510, -15732, -3031, 4244, 326, -484, -291
15520, -15777, -3046, 4263, 324, -492, -312
15530, -15781, -3071, 4249, 331, -494, -314
15540, -15790, -3096, 4233, 340, -476, -304
15550, -15750, -3100, 4263, 347, -490, -290
15560, -15708, -3106, 4289, 347, -501, -287
15570, -15696, -3112, 4310, 320, -499, -297
15580, -15724, -3113, 4328, 313, -477, -295
15590, -15794, -3088, 4270, 352, -438, -319
15600, -15781, -3093, 4265, 345, -436, -314
15610, -15793, -3078, 4253, 328, -403, -304
15620, -15780, -3051, 4174, 297, -378, -287
15630, -15788, -3042, 4193, 346, -405, -297
15640, -15781, -3062, 4150, 330, -424, -308
15650, -15763, -3129, 4122, 341, -470, -320
15660, -15792, -3129, 4182, 376, -508, -316
15670, -15814, -3097, 4230, 343, -496, -290
15680, -15807, -3059, 4189, 351, -505, -273
15690, -15753, -3051, 4180, 335, -531, -266
15700, -15714, -3048, 4238, 333, -560, -268
15710, -15725, -3083, 4304, 372, -586, -268
15720, -15743, -3064, 4332, 330, -564, -266
15730, -15749, -3073, 4327, 351, -547, -270
15740, -15771, -3039, 4331, 332, -509, -291
15750, -15767, -3035, 4314, 341, -489, -309
15760, -15770, -3030, 4294, 341, -456, -311
15770, -15774, -3014, 4303, 343, -459, -300
15780, -15745, -3011, 4266, 364, -481, -311
15790, -15734, -3023, 4279, 349, -503, -297
15800, -15732, -3027, 4303, 341, -517, -309
15810, -15704, -3033, 4336, 342, -478, -310
15820, -15750, -3046, 4335, 310, -415, -307
15830, -15777, -3061, 4300, 308, -369, -323
15840, -15808, -3111, 4245, 312, -353, -327
15850, -15786, -3129, 4186, 343, -364, -337
15860, -15750, -3112, 4186, 327, -386, -337
15870, -15765, -3094, 4210, 331, -402, -315
15880, -15794, -3080, 4177, 344, -403, -320
15890, -15817, -3084, 4137, 312, -418, -293
15900, -15814, -3064, 4116, 330, -466, -296
15910, -15758, -3086, 4156, 337, -562, -293
15920, -15751, -3081, 4218, 360, -576, -292
15930, -15749, -3084, 4257, 358, -589, -299
15940, -15772, -3078, 4291, 347, -553, -283
15950, -15765, -3064, 4301, 344, -531, -282
15960, -15739, -3047, 4338, 354, -530, -293
15970, -15751, -3023, 4347, 328, -502, -299
15980, -15722, -3035, 4354, 332, -504, -312
15990, -15735, -3044, 4377, 327, -488, -305
16000, -15754, -3043, 4386, 294, -502, -313
16010, -15760, -3050, 4369, 305, -482, -301
16020, -15767, -3051, 4340, 312, -472, -315
16030, -15751, -3039, 4316, 322, -465, -328
16040, -15747, -3056, 4279, 339, -469, -316
16050, -15747, -3054, 4276, 320, -444, -299
16060, -15730, -3082, 4250, 317, -439, -310
16070, -15780, -3101, 4223, 303, -420, -292
16080, -15772, -3092, 4216, 344, -439, -293
16090, -15757, -3098, 4205, 342, -466, -304
16100, -15770, -3095, 4227, 343, -472, -300
16110, -15764, -3099, 4219, 330, -474, -286
16120, -15760, -3072, 4220, 310, -478, -294
16130, -15755, -3081, 4225, 323, -487, -292
16140, -15772, -3050, 4231, 357, -492, -288
16150, -15761, -3068, 4312, 328, -502, -296
16160, -15765, -3052, 4332, 311, -474, -290
16170, -15743, -3040, 4360, 299, -461, -284
16180, -15739, -3052, 4339, 300, -432, -287
16190, -15723, -3047, 4347, 335, -436, -291
16200, -15739, -3044, 4339, 327, -452, -311
16210, -15752, -3053, 4323, 320, -453, -306
16220, -15742, -3054, 4378, 345, -469, -311
16230, -15746, -3065, 4352, 301, -463, -317
16240, -15767, -3062, 4340, 304, -434, -317
16250, -15775, -3071, 4268, 298, -404, -316
16260, -15786, -3096, 4223, 295, -373, -300
16270, -15760, -3079, 4229, 327, -394, -295
16280, -15718, -3069, 4213, 304, -374, -272
16290, -15747, -3090, 4201, 306, -395, -281
16300, -15763, -3069, 4212, 366, -480, -308
16310, -15789, -3094, 4215, 372, -495, -323
16320, -15795, -3124, 4219, 354, -502, -307
16330, -15765, -3078, 4260, 327, -498, -289
16340, -15741, -3085, 4298, 338, -505, -288
16350, -15716, -3109, 4331, 316, -476, -280
16360, -15729, -3125, 4322, 327, -441, -296
16370, -15795, -3081, 4307, 323, -392, -291
16380, -15786, -3067, 4333, 326, -391, -304
16390, -15775, -3024, 4300, 330, -331, -304
16400, -15755, -3006, 4311, 280, -322, -297
16410, -15762, -2984, 4318, 303, -357, -316
16420, -15699, -3035, 4286, 302, -382, -337
16430, -15697, -3048, 4284, 317, -392, -338
16440, -15757, -3041, 4346, 321, -405, -335
16450, -15797, -3033, 4324, 345, -378, -354
16460, -15785, -3048, 4271, 311, -306, -318
16470, -15771, -3066, 4226, 298, -311, -306
16480, -15743, -3095, 4242, 317, -357, -314
16490, -15739, -3120, 4257, 340, -370, -299
16500, -15742, -3137, 4259, 328, -371, -305
16510, -15737, -3126, 4243, 333, -335, -292
16520, -15765, -3119, 4204, 343, -287, -283
16530, -15763, -3107, 4196, 325, -274, -292
16540, -15759, -3097, 4171, 319, -288, -292
16550, -15778, -3095, 4163, 296, -309, -288
16560, -15778, -3083, 4172, 314, -343, -304
16570, -15761, -3081, 4182, 316, -364, -299
16580, -15733, -3056, 4220, 305, -379, -298
16590, -15734, -3045, 4234, 308, -397, -295
16600, -15732, -3053, 4281, 340, -379, -300
16610, -15821, -3043, 4263, 349, -289, -321
16620, -15814, -3060, 4213, 320, -274, -334
16630, -15808, -3067, 4176, 337, -275, -337
16640, -15734, -3046, 4222, 322, -321, -322
16650, -15749, -3033, 4259, 353, -324, -315
16660, -15791, -3010, 4256, 343, -297, -308
16670, -15808, -3038, 4166, 307, -269, -306
16680, -15796, -3076, 4148, 343, -295, -308
16690, -15778, -3097, 4167, 329, -327, -320
16700, -15756, -3107, 4175, 314, -338, -324
16710, -15766, -3121, 4166, 337, -287, -322
16720, -15791, -3107, 4149, 333, -269, -329
16730, -15790, -3110, 4111, 341, -271, -334
16740, -15786, -3098, 4093, 330, -265, -320
16750, -15780, -3108, 4092, 354, -268, -336
16760, -15780, -3093, 4094, 357, -262, -337
16770, -15788, -3091, 4105, 310, -246, -324
16780, -15772, -3098, 4122, 285, -261, -328
16790, -15782, -3106, 4136, 307, -259, -325
16800, -15784, -3122, 4125, 312, -252, -328
16810, -15810, -3088, 4112, 333, -292, -339
16820, -15806, -3088, 4105, 337, -293, -327
16830, -15813, -3099, 4102, 325, -297, -327
16840, -15824, -3087, 4088, 322, -338, -320
16850, -15788, -3079, 4091, 326, -335, -320
16860, -15802, -3096, 4085, 349, -353, -329
16870, -15811, -3077, 4065, 345, -356, -327
16880, -15811, -3079, 4044, 360, -376, -318
16890, -15804, -3078, 4047, 337, -376, -322
16900, -15800, -3096, 4048, 332, -381, -313
16910, -15800, -3102, 4020, 359, -418, -313
16920, -15812, -3096, 4011, 340, -432, -298
16930, -15806, -3093, 3993, 348, -453, -314
16940, -15812, -3106, 4029, 364, -508, -315
16950, -15803, -3120, 4026, 355, -534, -308
16960, -15775, -3102, 4037, 349, -541, -297
16970, -15799, -3097, 4046, 341, -577, -303
16980, -15810, -3112, 4066, 349, -593, -304
16990, -15800, -3110, 4093, 345, -591, -303
17000, -15792, -3094, 4106, 351, -599, -295
17010, -15775, -3087, 4133, 323, -561, -283
17020, -15794, -3092, 4149, 341, -551, -299
17030, -15785, -3126, 4132, 327, -519, -291
17040, -15800, -3100, 4111, 337, -493, -308
17050, -15790, -3092, 4128, 365, -503, -289
17060, -15778, -3094, 4139, 360, -518, -292
17070, -15802, -3090, 4103, 364, -514, -302
17080, -15761, -3103, 4102, 332, -491, -281
17090, -15773, -3105, 4099, 335, -487, -272
17100, -15788, -3122, 4120, 344, -507, -282
17110, -15853, -3116, 4103, 378, -503, -300
17120, -15851, -3089, 4089, 374, -493, -300
17130, -15802, -3083, 4093, 341, -484, -280
17140, -15778, -3073, 4084, 318, -510, -297
17150, -15790, -3063, 4096, 319, -512, -288
17160, -15748, -3085, 4124, 340, -530, -302
17170, -15741, -3093, 4117, 330, -500, -306
17180, -15764, -3082, 4148, 335, -512, -309
17190, -15781, -3072, 4184, 335, -525, -312
17200, -15819, -3085, 4144, 313, -477, -305
17210, -15823, -3079, 4115, 306, -484, -288
17220, -15791, -3099, 4104, 318, -535, -294
17230, -15749, -3126, 4175, 349, -589, -276
17240, -15762, -3119, 4187, 341, -571, -269
17250, -15765, -3125, 4187, 373, -557, -289
17260, -15759, -3104, 4168, 354, -535, -281
17270, -15784, -3089, 4128, 369, -518, -291
17280, -15776, -3079, 4121, 334, -530, -296
17290, -15804, -3074, 4132, 338, -524, -295
17300, -15803, -3110, 4098, 322, -543, -299
17310, -15758, -3086, 4120, 310, -546, -293
17320, -15734, -3053, 4173, 323, -570, -270
17330, -15747, -3060, 4200, 353, -546, -282
17340, -15768, -3062, 4198, 324, -517, -289
17350, -15812, -3074, 4164, 329, -479, -306
17360, -15803, -3089, 4138, 314, -470, -300
17370, -15786, -3094, 4163, 347, -502, -304
17380, -15757, -3090, 4184, 352, -510, -297
17390, -15760, -3052, 4234, 320, -499, -298
17400, -15799, -3048, 4192, 329, -478, -290
17410, -15802, -3073, 4176, 341, -489, -295
17420, -15799, -3052, 4187, 342, -519, -297
17430, -15761, -3089, 4204, 341, -567, -300
17440, -15743, -3100, 4213, 319, -557, -283
17450, -15764, -3114, 4196, 324, -548, -288
17460, -15771, -3084, 4207, 319, -521, -305
17470, -15785, -3084, 4191, 333, -499, -302
17480, -15769, -3098, 4170, 335, -476, -303
17490, -15774, -3087, 4164, 342, -470, -301
17500, -15757, -3080, 4177, 351, -497, -293
17510, -15774, -3087, 4169, 332, -497, -288
17520, -15785, -3075, 4163, 326, -499, -294
17530, -15772, -3108, 4197, 321, -501, -286
17540, -15780, -3077, 4206, 345, -497, -281
17550, -15777, -3089, 4189, 347, -523, -293
17560, -15780, -3085, 4213, 326, -517, -280
17570, -15759, -3084, 4239, 340, -531, -281
17580, -15783, -3067, 4243, 336, -536, -302
17590, -15758, -3079, 4251, 338, -523, -284
17600, -15765, -3081, 4241, 348, -516, -299
17610, -15755, -3069, 4256, 335, -500, -293
17620, -15776, -3062, 4216, 333, -485, -274
17630, -15774, -3060, 4216, 345, -503, -285
17640, -15757, -3030, 4226, 323, -515, -290
17650, -15761, -3050, 4243, 321, -520, -284
17660, -15758, -3064, 4227, 344, -529, -298
17670, -15761, -3067, 4199, 329, -517, -283
17680, -15760, -3080, 4243, 339, -533, -294
17690, -15763, -3079, 4230, 355, -537, -291
17700, -15764, -3089, 4238, 360, -536, -292
17710, -15748, -3060, 4266, 343, -534, -291
17720, -15759, -3091, 4235, 333, -519, -292
17730, -15763, -3088, 4252, 336, -521, -290
17740, -15774, -3081, 4263, 339, -518, -287
17750, -15781, -3088, 4273, 321, -512, -303
17760, -15794, -3069, 4258, 316, -501, -305
17770, -15773, -3067, 4258, 335, -497, -292
17780, -15747, -3068, 4269, 331, -499, -293
17790, -15730, -3064, 4280, 320, -503, -292
17800, -15745, -3055, 4278, 330, -498, -291
17810, -15791, -3088, 4239, 345, -500, -290
17820, -15785, -3070, 4241, 319, -511, -284
17830, -15764, -3062, 4249, 317, -514, -287
17840, -15695, -3058, 4277, 332, -525, -288
17850, -15724, -3071, 4303, 331, -524, -294
17860, -15761, -3092, 4309, 339, -516, -298
17870, -15803, -3074, 4295, 336, -492, -295
17880, -15776, -3086, 4290, 343, -443, -288
17890, -15784, -3081, 4292, 367, -448, -299
17900, -15769, -3048, 4253, 338, -427, -304
17910, -15749, -3035, 4240, 307, -418, -312
17920, -15704, -3059, 4189, 322, -436, -319
17930, -15701, -3070, 4211, 330, -459, -314
17940, -15737, -3060, 4341, 311, -493, -308
17950, -15770, -3050, 4339, 312, -458, -300
17960, -15796, -3034, 4274, 305, -429, -298
17970, -15819, -3054, 4246, 318, -445, -304
17980, -15746, -3078, 4276, 330, -540, -291
17990, -15733, -3101, 4294, 340, -565, -291
18000, -15742, -3110, 4315, 339, -541, -276
18010, -15742, -3076, 4275, 331, -475, -284
18020, -15759, -3080, 4272, 326, -463, -289
18030, -15768, -3084, 4237, 328, -472, -299
18040, -15759, -3065, 4247, 311, -490, -290
18050, -15756, -3071, 4263, 328, -502, -279
18060, -15743, -3045, 4292, 353, -524, -297
18070, -15712, -3020, 4356, 327, -513, -280
18080, -15721, -3047, 4365, 323, -457, -286
18090, -15761, -3055, 4344, 326, -405, -291
18100, -15811, -3075, 4277, 318, -360, -297
18110, -15759, -3080, 4268, 339, -434, -308
18120, -15722, -3068, 4282, 352, -459, -306
18130, -15711, -3067, 4315, 340, -448, -306
18140, -15801, -3040, 4273, 355, -449, -315
18150, -15791, -3036, 4254, 328, -454, -292
18160, -15759, -3026, 4255, 326, -495, -288
18170, -15717, -3070, 4328, 350, -534, -299
18180, -15715, -3075, 4345, 332, -509, -289
18190, -15758, -3072, 4291, 342, -483, -298
18200, -15776, -3102, 4285, 370, -461, -318
18210, -15789, -3094, 4280, 361, -446, -314
18220, -15765, -3100, 4278, 340, -438, -309
18230, -15752, -3077, 4284, 336, -448, -304
18240, -15750, -3068, 4268, 330, -439, -289
18250, -15733, -3081, 4284, 323, -451, -295
18260, -15744, -3075, 4285, 344, -488, -297
18270, -15762, -3061, 4288, 349, -500, -304
18280, -15737, -3068, 4279, 335, -491, -298
18290, -15751, -3065, 4297, 332, -482, -292
18300, -15755, -3062, 4300, 338, -486, -297
18310, -15727, -3065, 4302, 336, -481, -291
18320, -15749, -3057, 4314, 326, -476, -280
18330, -15757, -3065, 4306, 328, -490, -311
18340, -15769, -3056, 4308, 332, -477, -304
18350, -15784, -3064, 4332, 339, -464, -311
18360, -15758, -3060, 4307, 350, -485, -311
18370, -15759, -3051, 4311, 354, -484, -306
18380, -15739, -3049, 4323, 354, -480, -285
18390, -15742, -3048, 4310, 331, -475, -298
18400, -15739, -3063, 4314, 339, -457, -284
18410, -15736, -3045, 4296, 340, -466, -314
18420, -15711, -3065, 4295, 344, -469, -314
18430, -15747, -3065, 4290, 341, -458, -297
18440, -15765, -3063, 4301, 351, -480, -312
18450, -15736, -3064, 4313, 350, -481, -299
18460, -15751, -3061, 4301, 285, -458, -288
18470, -15741, -3063, 4301, 326, -485, -306
18480, -15750, -3075, 4308, 323, -470, -292
18490, -15749, -3060, 4306, 320, -466, -285
18500, -15768, -3052, 4327, 347, -476, -296
18510, -15742, -3058, 4331, 355, -493, -300
18520, -15765, -3057, 4325, 345, -482, -304
18530, -15750, -3068, 4325, 329, -468, -296
18540, -15773, -3057, 4306, 323, -454, -297
18550, -15757, -3063, 4301, 327, -448, -302
18560, -15746, -3064, 4303, 335, -474, -301
18570, -15718, -3057, 4323, 344, -495, -301
18580, -15768, -3079, 4311, 334, -466, -294
18590, -15773, -3069, 4291, 314, -460, -283
18600, -15755, -3063, 4297, 323, -467, -277
18610, -15685, -3037, 4349, 319, -510, -285
18620, -15702, -3056, 4393, 316, -503, -286
18630, -15732, -3081, 4376, 330, -503, -309
18640, -15778, -3073, 4318, 341, -469, -300
18650, -15786, -3069, 4338, 342, -433, -312
18660, -15771, -3053, 4351, 321, -425, -309
18670, -15760, -3035, 4320, 328, -405, -315
18680, -15742, -3030, 4291, 301, -399, -310
18690, -15718, -3051, 4272, 283, -386, -305
18700, -15692, -3079, 4250, 309, -411, -311
18710, -15748, -3058, 4384, 328, -498, -315
18720, -15768, -3019, 4401, 317, -469, -321
18730, -15814, -3048, 4347, 299, -426, -320
18740, -15767, -3064, 4296, 340, -457, -312
18750, -15735, -3084, 4300, 349, -499, -300
18760, -15720, -3088, 4336, 342, -528, -291
18770, -15735, -3105, 4354, 331, -501, -291
18780, -15749, -3076, 4344, 340, -472, -286
18790, -15726, -3091, 4332, 353, -466, -297
18800, -15731, -3057, 4315, 327, -447, -304
18810, -15746, -3054, 4300, 305, -419, -293
18820, -15744, -3077, 4300, 326, -429, -298
18830, -15756, -3070, 4296, 346, -447, -303
18840, -15751, -3061, 4294, 335, -486, -301
18850, -15742, -3040, 4320, 316, -487, -292
18860, -15716, -3021, 4349, 322, -490, -295
18870, -15718, -3024, 4380, 338, -443, -292
18880, -15748, -3033, 4375, 323, -396, -296
18890, -15794, -3040, 4322, 310, -356, -293
18900, -15797, -3050, 4276, 316, -378, -305
18910, -15717, -3071, 4325, 367, -466, -320
18920, -15717, -3055, 4370, 346, -449, -314
18930, -15739, -3027, 4393, 351, -420, -304
18940, -15717, -3070, 4353, 338, -480, -309
18950, -15726, -3065, 4354, 339, -476, -323
18960, -15752, -3092, 4318, 346, -450, -312
18970, -15769, -3101, 4324, 341, -427, -303
18980, -15753, -3107, 4307, 346, -424, -301
18990, -15753, -3107, 4295, 341, -421, -307
19000, -15745, -3070, 4294, 318, -405, -312
19010, -15740, -3067, 4290, 329, -401, -305
19020, -15731, -3071, 4287, 318, -402, -299
19030, -15728, -3068, 4326, 293, -399, -291
19040, -15735, -3061, 4320, 346, -409, -319
19050, -15749, -3074, 4317, 323, -404, -306
19060, -15764, -3065, 4333, 325, -400, -305
19070, -15752, -3077, 4305, 332, -394, -294
19080, -15766, -3068, 4314, 314, -402, -305
19090, -15746, -3057, 4316, 319, -401, -301
19100, -15754, -3052, 4327, 324, -388, -302
19110, -15758, -3049, 4327, 343, -371, -306
19120, -15767, -3043, 4325, 334, -371, -313
19130, -15746, -3062, 4311, 329, -358, -304
19140, -15761, -3025, 4309, 346, -346, -317
19150, -15773, -3049, 4291, 346, -347, -316
19160, -15741, -3038, 4284, 327, -335, -302
19170, -15740, -3068, 4265, 333, -320, -308
19180, -15753, -3085, 4255, 318, -313, -305
19190, -15746, -3069, 4273, 334, -338, -310
19200, -15723, -3071, 4267, 347, -333, -317
19210, -15734, -3072, 4275, 331, -330, -326
19220, -15762, -3085, 4276, 330, -327, -331
19230, -15755, -3075, 4266, 346, -323, -325
19240, -15740, -3076, 4274, 314, -318, -331
19250, -15739, -3068, 4260, 312, -310, -317
19260, -15762, -3090, 4246, 303, -302, -312
19270, -15770, -3088, 4240, 326, -318, -323
19280, -15762, -3088, 4226, 335, -321, -322
19290, -15749, -3089, 4229, 326, -338, -316
19300, -15769, -3087, 4210, 322, -331, -313
19310, -15782, -3102, 4217, 341, -349, -310
19320, -15796, -3080, 4216, 328, -349, -302
19330, -15779, -3068, 4199, 334, -359, -313
19340, -15786, -3062, 4186, 332, -362, -314
19350, -15777, -3054, 4192, 330, -345, -301
19360, -15785, -3070, 4187, 333, -340, -312
19370, -15778, -3068, 4176, 303, -333, -295
19380, -15771, -3071, 4185, 319, -350, -304
19390, -15762, -3078, 4189, 330, -368, -311
19400, -15775, -3085, 4177, 354, -394, -326
19410, -15796, -3084, 4167, 328, -377, -320
19420, -15766, -3062, 4178, 311, -385, -311
19430, -15751, -3074, 4207, 320, -380, -298
19440, -15752, -3066, 4227, 339, -403, -319
19450, -15735, -3079, 4219, 340, -376, -321
19460, -15818, -3098, 4201, 336, -340, -312
19470, -15819, -3088, 4185, 371, -350, -323
19480, -15795, -3077, 4179, 366, -352, -331
19490, -15785, -3057, 4176, 299, -325, -309
19500, -15774, -3045, 4184, 331, -336, -327
19510, -15758, -3051, 4189, 304, -318, -312
19520, -15737, -3066, 4120, 289, -310, -307
19530, -15747, -3098, 4161, 320, -312, -327
19540, -15791, -3079, 4207, 315, -342, -338
19550, -15805, -3076, 4196, 304, -335, -332
19560, -15830, -3087, 4133, 303, -294, -329
19570, -15778, -3107, 4095, 315, -316, -309
19580, -15771, -3116, 4084, 311, -355, -290
19590, -15757, -3132, 4162, 336, -395, -297
19600, -15767, -3117, 4152, 322, -376, -301
19610, -15775, -3120, 4134, 344, -355, -298
19620, -15790, -3102, 4117, 349, -335, -304
19630, -15810, -3079, 4081, 329, -338, -318
19640, -15811, -3090, 4063, 317, -349, -314
19650, -15798, -3069, 4076, 318, -404, -314
19660, -15792, -3091, 4114, 346, -421, -320
19670, -15775, -3069, 4144, 291, -410, -314
19680, -15752, -3059, 4118, 326, -418, -314
19690, -15765, -3039, 4180, 326, -410, -327
19700, -15798, -3078, 4147, 318, -302, -317
19710, -15830, -3082, 4100, 338, -287, -330
19720, -15804, -3105, 4089, 346, -312, -345
19730, -15761, -3093, 4097, 329, -353, -320
19740, -15760, -3068, 4116, 330, -387, -332
19750, -15771, -3051, 4115, 337, -376, -323
19760, -15797, -3066, 4090, 325, -355, -319
19770, -15788, -3094, 4087, 324, -376, -320
19780, -15777, -3122, 4103, 313, -386, -305
19790, -15775, -3131, 4109, 311, -389, -302
19800, -15779, -3134, 4112, 333, -375, -329
19810, -15795, -3125, 4100, 326, -361, -327
19820, -15797, -3095, 4070, 321, -353, -332
19830, -15793, -3107, 4003, 342, -365, -334
19840, -15784, -3097, 4023, 324, -363, -312
19850, -15782, -3112, 4035, 322, -377, -316
19860, -15779, -3106, 4052, 331, -371, -314
19870, -15823, -3119, 4035, 341, -429, -317
19880, -15792, -3111, 4026, 353, -466, -302
19890, -15818, -3105, 4047, 343, -493, -304
19900, -15811, -3107, 4039, 352, -524, -301
19910, -15814, -3114, 4049, 333, -546, -287
19920, -15802, -3106, 4048, 350, -579, -291
19930, -15824, -3103, 4065, 347, -593, -292
19940, -15794, -3096, 4090, 352, -587, -288
19950, -15790, -3089, 4100, 345, -587, -278
19960, -15783, -3072, 4107, 343, -570, -281
19970, -15765, -3076, 4098, 331, -557, -286
19980, -15785, -3092, 4105, 350, -552, -297
19990, -15785, -3093, 4111, 350, -557, -296
20000, -15802, -3091, 4106, 343, -540, -290
20010, -15796, -3119, 4112, 331, -529, -282
20020, -15793, -3116, 4102, 317, -529, -292
20030, -15760, -3120, 4117, 323, -526, -290
20040, -15784, -3083, 4132, 337, -531, -278
20050, -15781, -3101, 4133, 324, -546, -292
20060, -15790, -3095, 4133, 338, -526, -298
20070, -15805, -3107, 4121, 354, -535, -307
20080, -15796, -3102, 4113, 305, -529, -290
20090, -15796, -3101, 4100, 335, -542, -277
20100, -15800, -3105, 4114, 348, -544, -281
20110, -15787, -3086, 4126, 353, -547, -281
20120, -15784, -3101, 4148, 344, -556, -290
20130, -15784, -3104, 4118, 337, -545, -289
20140, -15785, -3110, 4135, 329, -543, -287
20150, -15750, -3096, 4142, 343, -546, -279
20160, -15792, -3094, 4156, 347, -548, -292
20170, -15825, -3116, 4140, 344, -531, -282
20180, -15798, -3098, 4121, 342, -550, -278
20190, -15799, -3082, 4139, 343, -564, -271
20200, -15749, -3101, 4130, 347, -585, -273
20210, -15748, -3085, 4183, 347, -597, -282
20220, -15786, -3096, 4190, 351, -582, -278
20230, -15802, -3090, 4176, 352, -560, -279
20240, -15825, -3079, 4205, 348, -553, -295
20250, -15765, -3060, 4211, 308, -471, -292
20260, -15792, -3037, 4174, 316, -440, -287
20270, -15794, -3049, 4157, 330, -455, -307
20280, -15737, -3080, 4148, 309, -464, -293
20290, -15737, -3104, 4155, 306, -484, -303
20300, -15773, -3099, 4206, 345, -522, -307
20310, -15789, -3084, 4212, 306, -502, -315
20320, -15822, -3087, 4169, 288, -459, -290
20330, -15802, -3090, 4125, 317, -478, -289
20340, -15748, -3088, 4174, 319, -573, -271
20350, -15727, -3107, 4209, 341, -584, -282
20360, -15779, -3121, 4211, 351, -581, -277
20370, -15751, -3121, 4225, 361, -557, -265
20380, -15779, -3094, 4189, 336, -545, -294
20390, -15767, -3094, 4196, 326, -533, -292
20400, -15753, -3121, 4188, 331, -523, -290
20410, -15772, -3082, 4187, 312, -526, -295
20420, -15784, -3085, 4184, 350, -522, -288
20430, -15760, -3085, 4183, 346, -538, -299
20440, -15737, -3066, 4237, 349, -544, -296
20450, -15724, -3024, 4281, 342, -528, -279
20460, -15747, -3040, 4307, 364, -514, -308
20470, -15782, -3051, 4286, 340, -449, -300
20480, -15814, -3080, 4186, 300, -379, -292
20490, -15797, -3087, 4179, 315, -418, -304
20500, -15745, -3089, 4212, 321, -456, -304
20510, -15744, -3050, 4256, 352, -466, -300
20520, -15770, -3041, 4244, 353, -459, -308
20530, -15808, -3061, 4187, 315, -445, -306
20540, -15827, -3075, 4180, 330, -475, -302
20550, -15760, -3097, 4209, 311, -516, -283
20560, -15743, -3085, 4243, 350, -532, -287
20570, -15761, -3081, 4257, 367, -526, -313
20580, -15775, -3083, 4241, 334, -504, -317
20590, -15773, -3089, 4217, 354, -479, -314
20600, -15802, -3102, 4239, 342, -472, -315
20610, -15773, -3090, 4191, 343, -498, -321
20620, -15767, -3076, 4188, 315, -498, -295
20630, -15761, -3089, 4204, 317, -503, -278
20640, -15760, -3093, 4242, 318, -521, -293
20650, -15756, -3112, 4239, 350, -510, -294
20660, -15770, -3087, 4229, 323, -510, -284
20670, -15766, -3081, 4246, 334, -528, -291
20680, -15762, -3081, 4247, 326, -527, -290
20690, -15749, -3080, 4270, 338, -520, -286
20700, -15758, -3079, 4272, 342, -529, -282
20710, -15756, -3069, 4269, 327, -509, -294
20720, -15763, -3071, 4272, 333, -503, -293
20730, -15743, -3086, 4282, 327, -500, -297
20740, -15762, -3073, 4259, 339, -485, -299
20750, -15768, -3076, 4254, 328, -462, -289
20760, -15772, -3066, 4278, 334, -475, -290
20770, -15773, -3060, 4265, 344, -482, -301
20780, -15759, -3068, 4252, 329, -467, -299
20790, -15775, -3069, 4237, 326, -475, -293
20800, -15769, -3075, 4234, 326, -489, -287
20810, -15751, -3071, 4263, 334, -523, -293
20820, -15741, -3080, 4276, 316, -524, -295
20830, -15737, -3068, 4275, 323, -516, -301
20840, -15738, -3073, 4241, 338, -503, -297
20850, -15749, -3084, 4281, 335, -518, -287
20860, -15752, -3057, 4314, 317, -489, -288
20870, -15768, -3074, 4274, 306, -494, -305
20880, -15787, -3075, 4297, 351, -499, -298
20890, -15752, -3073, 4309, 333, -496, -287
20900, -15748, -3051, 4290, 326, -490, -290
20910, -15745, -3053, 4263, 338, -480, -298
20920, -15757, -3073, 4291, 326, -480, -303
20930, -15750, -3049, 4284, 332, -475, -301
20940, -15763, -3064, 4275, 320, -460, -284
20950, -15756, -3054, 4271, 332, -487, -295
20960, -15746, -3069, 4279, 351, -492, -294
20970, -15771, -3089, 4232, 339, -492, -299
20980, -15782, -3090, 4237, 354, -504, -287
20990, -15736, -3064, 4251, 339, -524, -280
21000, -15699, -3065, 4323, 324, -511, -262
21010, -15715, -3085, 4352, 373, -540, -296
21020, -15755, -3060, 4314, 340, -507, -304
21030, -15799, -3062, 4304, 341, -473, -315
21040, -15803, -3058, 4295, 350, -450, -305
21050, -15767, -3070, 4265, 327, -431, -309
21060, -15762, -3026, 4263, 290, -395, -295
21070, -15752, -3019, 4273, 318, -413, -309
21080, -15712, -3067, 4211, 318, -411, -305
21090, -15753, -3080, 4303, 306, -499, -312
21100, -15761, -3051, 4362, 339, -509, -318
21110, -15782, -3051, 4339, 321, -463, -321
21120, -15788, -3046, 4289, 316, -435, -306
21130, -15741, -3055, 4249, 337, -498, -303
21140, -15726, -3072, 4285, 314, -519, -286
21150, -15713, -3082, 4303, 332, -529, -287
21160, -15731, -3097, 4328, 339, -508, -277
21170, -15752, -3094, 4322, 329, -497, -287
21180, -15741, -3092, 4284, 337, -469, -301
21190, -15721, -3071, 4307, 328, -451, -297
21200, -15747, -3081, 4277, 355, -455, -312
21210, -15753, -3094, 4256, 318, -450, -296
21220, -15743, -3073, 4264, 338, -465, -296
21230, -15754, -3068, 4256, 338, -478, -282
21240, -15758, -3065, 4279, 342, -496, -303
21250, -15707, -3039, 4311, 328, -496, -281
21260, -15728, -3022, 4372, 340, -431, -281
21270, -15775, -3023, 4342, 336, -383, -298
21280, -15802, -3031, 4271, 313, -325, -306
21290, -15763, -3049, 4287, 336, -391, -316
21300, -15708, -3067, 4310, 363, -409, -299
21310, -15732, -3035, 4354, 346, -402, -305
21320, -15763, -3038, 4301, 349, -382, -316
21330, -15782, -3041, 4273, 323, -409, -319
21340, -15757, -3027, 4278, 341, -441, -307
21350, -15715, -3061, 4303, 357, -470, -309
21360, -15733, -3062, 4313, 341, -433, -316
21370, -15756, -3080, 4314, 319, -400, -319
21380, -15768, -3091, 4331, 333, -389, -322
21390, -15760, -3091, 4284, 318, -362, -321
21400, -15759, -3083, 4267, 324, -349, -329
21410, -15743, -3087, 4249, 318, -333, -326
21420, -15749, -3064, 4239, 329, -328, -316
21430, -15741, -3076, 4248, 322, -356, -317
21440, -15754, -3088, 4266, 342, -383, -323
21450, -15759, -3078, 4272, 346, -384, -324
21460, -15757, -3087, 4257, 345, -370, -314
21470, -15765, -3085, 4259, 313, -375, -315
21480, -15763, -3087, 4283, 317, -366, -321
21490, -15785, -3077, 4266, 316, -355, -322
21500, -15764, -3048, 4283, 333, -342, -315
21510, -15765, -3049, 4257, 327, -339, -306
21520, -15773, -3059, 4263, 302, -324, -315
21530, -15775, -3059, 4238, 326, -329, -323
21540, -15755, -3073, 4227, 342, -327, -321
21550, -15779, -3074, 4238, 316, -315, -310
21560, -15769, -3048, 4213, 316, -306, -311
21570, -15763, -3065, 4211, 333, -298, -317
21580, -15748, -3066, 4203, 298, -294, -327
21590, -15748, -3065, 4207, 346, -271, -317
21600, -15777, -3089, 4203, 340, -277, -330
21610, -15790, -3089, 4199, 343, -270, -321
21620, -15771, -3091, 4211, 347, -266, -337
21630, -15769, -3076, 4200, 301, -266, -334
21640, -15777, -3093, 4181, 313, -288, -348
21650, -15773, -3096, 4170, 332, -292, -344
21660, -15773, -3105, 4151, 320, -297, -346
21670, -15790, -3106, 4172, 332, -291, -331
21680, -15778, -3084, 4169, 348, -295, -326
21690, -15788, -3081, 4136, 315, -259, -341
21700, -15808, -3078, 4167, 336, -247, -326
21710, -15803, -3084, 4139, 333, -247, -327
21720, -15811, -3081, 4125, 339, -290, -318
21730, -15808, -3070, 4129, 330, -296, -332
21740, -15784, -3101, 4121, 354, -310, -328
21750, -15783, -3099, 4092, 337, -315, -326
21760, -15789, -3117, 4089, 340, -313, -330
21770, -15772, -3131, 4107, 329, -349, -325
21780, -15798, -3115, 4089, 331, -346, -311
21790, -15814, -3111, 4073, 322, -318, -314
21800, -15802, -3095, 4073, 306, -307, -310
21810, -15787, -3096, 4080, 287, -305, -300
21820, -15766, -3109, 4100, 332, -313, -295
21830, -15784, -3097, 4096, 348, -322, -311
21840, -15818, -3109, 4083, 361, -324, -307
21850, -15817, -3102, 4091, 363, -327, -308
21860, -15827, -3094, 4080, 336, -321, -310
21870, -15811, -3070, 4060, 289, -312, -310
21880, -15806, -3067, 4081, 282, -302, -304
21890, -15775, -3052, 4080, 322, -311, -326
21900, -15775, -3091, 4035, 323, -302, -320
21910, -15775, -3100, 4036, 334, -249, -319
21920, -15802, -3089, 4062, 306, -285, -337
21930, -15854, -3087, 4050, 306, -281, -333
21940, -15831, -3093, 3998, 340, -308, -334
21950, -15819, -3113, 3970, 325, -305, -298
21960, -15780, -3136, 3982, 328, -394, -299
21970, -15780, -3133, 4016, 318, -432, -306
21980, -15767, -3154, 4023, 345, -414, -296
21990, -15808, -3138, 4012, 358, -392, -301
22000, -15816, -3109, 3959, 339, -394, -324
22010, -15826, -3117, 3938, 345, -395, -310
22020, -15842, -3109, 3951, 337, -414, -305
22030, -15808, -3097, 3982, 316, -476, -302
22040, -15801, -3114, 3994, 338, -495, -304
22050, -15801, -3112, 3993, 322, -490, -293
22060, -15770, -3084, 4036, 326, -523, -298
22070, -15788, -3099, 4046, 347, -519, -297
22080, -15805, -3093, 4031, 305, -483, -295
22090, -15847, -3102, 4009, 340, -486, -303
22100, -15860, -3113, 4011, 334, -499, -297
22110, -15812, -3117, 4006, 351, -541, -294
22120, -15767, -3067, 4021, 351, -557, -288
22130, -15803, -3049, 4073, 319, -552, -284
22140, -15820, -3071, 4055, 356, -547, -294
22150, -15846, -3066, 4027, 334, -532, -280
22160, -15813, -3126, 4030, 342, -588, -303
22170, -15792, -3125, 4037, 334, -587, -297
22180, -15791, -3128, 4034, 347, -587, -301
22190, -15786, -3123, 4033, 359, -559, -299
22200, -15816, -3125, 4011, 348, -558, -317
22210, -15815, -3109, 4024, 360, -554, -305
22220, -15807, -3103, 4003, 305, -557, -295
22230, -15796, -3089, 4021, 325, -556, -287
22240, -15785, -3099, 4020, 340, -562, -293
22250, -15796, -3096, 4090, 357, -620, -286
22260, -15767, -3113, 4124, 358, -632, -279
22270, -15788, -3095, 4152, 337, -624, -272
22280, -15803, -3103, 4169, 321, -602, -269
22290, -15782, -3105, 4160, 324, -604, -291
22300, -15775, -3093, 4154, 331, -597, -280
22310, -15776, -3100, 4132, 337, -578, -287
22320, -15805, -3079, 4105, 350, -548, -286
22330, -15798, -3081, 4125, 355, -562, -294
22340, -15805, -3079, 4119, 346, -577, -290
22350, -15791, -3079, 4112, 333, -564, -273
22360, -15777, -3075, 4124, 371, -577, -289
22370, -15806, -3061, 4103, 345, -565, -284
22380, -15802, -3072, 4103, 340, -575, -278
22390, -15792, -3081, 4114, 342, -568, -273
22400, -15791, -3091, 4108, 362, -570, -277
22410, -15772, -3060, 4116, 360, -570, -281
22420, -15774, -3081, 4125, 348, -563, -265
22430, -15787, -3095, 4101, 348, -582, -285
22440, -15786, -3075, 4144, 347, -577, -292
22450, -15774, -3098, 4164, 333, -587, -291
22460, -15766, -3101, 4181, 348, -589, -287
22470, -15769, -3081, 4192, 353, -590, -284
22480, -15768, -3082, 4207, 365, -599, -301
22490, -15775, -3080, 4234, 345, -560, -277
22500, -15778, -3073, 4236, 316, -542, -273
22510, -15782, -3085, 4237, 328, -521, -284
22520, -15770, -3074, 4207, 363, -516, -287
22530, -15778, -3073, 4204, 330, -507, -292
22540, -15766, -3073, 4214, 340, -491, -284
22550, -15774, -3081, 4187, 357, -500, -292
22560, -15813, -3089, 4133, 324, -501, -283
22570, -15824, -3095, 4109, 351, -523, -274
22580, -15785, -3100, 4124, 355, -547, -263
22590, -15742, -3079, 4182, 351, -586, -272
22600, -15744, -3098, 4187, 344, -588, -269
22610, -15771, -3094, 4197, 355, -575, -278
22620, -15799, -3078, 4210, 370, -566, -297
22630, -15795, -3065, 4235, 349, -547, -287
22640, -15778, -3035, 4235, 336, -509, -279
22650, -15721, -3080, 4182, 308, -487, -305
22660, -15741, -3066, 4287, 322, -528, -315
22670, -15778, -3051, 4313, 342, -557, -331
22680, -15793, -3035, 4276, 312, -504, -316
22690, -15799, -3059, 4211, 308, -471, -302
22700, -15753, -3070, 4214, 287, -501, -281
22710, -15733, -3089, 4228, 335, -522, -282
22720, -15746, -3094, 4258, 351, -546, -280
22730, -15767, -3084, 4250, 352, -515, -285
22740, -15773, -3084, 4231, 344, -491, -283
22750, -15756, -3079, 4219, 351, -494, -287
22760, -15767, -3084, 4200, 340, -505, -310
22770, -15762, -3079, 4211, 364, -500, -303
22780, -15765, -3077, 4203, 349, -500, -306
22790, -15769, -3082, 4175, 345, -521, -295
22800, -15762, -3065, 4197, 336, -531, -279
22810, -15728, -3045, 4220, 350, -547, -285
22820, -15736, -3055, 4295, 352, -548, -282
22830, -15772, -3042, 4303, 324, -464, -289
22840, -15810, -3040, 4275, 323, -429, -297
22850, -15803, -3043, 4290, 329, -428, -301
22860, -15739, -3049, 4276, 331, -469, -309
22870, -15717, -3039, 4315, 334, -459, -298
22880, -15778, -2997, 4273, 329, -434, -323
22890, -15799, -2988, 4243, 319, -432, -304
22900, -15802, -2995, 4225, 318, -473, -313
22910, -15741, -3014, 4293, 310, -506, -307
22920, -15741, -3054, 4262, 354, -488, -307
22930, -15759, -3060, 4262, 322, -492, -314
22940, -15763, -3083, 4259, 327, -478, -319
22950, -15807, -3093, 4236, 321, -473, -315
22960, -15766, -3093, 4248, 334, -477, -309
22970, -15752, -3109, 4251, 327, -471, -311
22980, -15754, -3112, 4259, 313, -454, -297
22990, -15761, -3099, 4250, 322, -467, -311
23000, -15750, -3132, 4232, 325, -472, -307
23010, -15757, -3123, 4250, 345, -480, -293
23020, -15757, -3129, 4252, 355, -479, -299
23030, -15761, -3106, 4266, 344, -494, -296
23040, -15750, -3089, 4302, 340, -496, -303
23050, -15745, -3069, 4304, 351, -489, -308
23060, -15756, -3070, 4296, 335, -469, -300
23070, -15753, -3058, 4266, 330, -459, -289
23080, -15753, -3042, 4279, 343, -447, -300
23090, -15780, -3043, 4270, 341, -450, -293
23100, -15784, -3060, 4244, 332, -453, -289
23110, -15784, -3021, 4255, 336, -463, -297
23120, -15769, -3030, 4261, 318, -451, -281
23130, -15774, -3019, 4242, 334, -452, -275
23140, -15774, -3008, 4251, 347, -476, -307
23150, -15764, -3024, 4252, 338, -465, -297
23160, -15743, -3038, 4264, 345, -458, -290
23170, -15766, -3049, 4265, 309, -470, -288
23180, -15770, -3054, 4251, 337, -497, -308
23190, -15783, -3065, 4258, 334, -472, -296
23200, -15753, -3076, 4273, 334, -473, -287
23210, -15751, -3102, 4266, 326, -477, -301
23220, -15742, -3102, 4280, 331, -482, -304
23230, -15758, -3073, 4288, 334, -481, -304
23240, -15757, -3090, 4296, 363, -473, -297
23250, -15757, -3076, 4286, 309, -478, -302
23260, -15753, -3110, 4292, 319, -475, -307
23270, -15756, -3075, 4306, 343, -475, -304
23280, -15768, -3070, 4309, 305, -477, -292
23290, -15760, -3061, 4291, 338, -476, -294
23300, -15745, -3061, 4280, 334, -464, -306
23310, -15745, -3049, 4275, 314, -453, -295
23320, -15766, -3038, 4267, 324, -448, -291
23330, -15741, -3044, 4276, 335, -447, -289
23340, -15732, -3054, 4278, 341, -458, -292
23350, -15752, -3070, 4276, 331, -465, -300
23360, -15796, -3075, 4245, 349, -485, -300
23370, -15768, -3069, 4245, 355, -505, -296
23380, -15733, -3042, 4281, 319, -507, -277
23390, -15695, -3072, 4310, 313, -519, -282
23400, -15732, -3070, 4317, 307, -491, -291
23410, -15779, -3083, 4308, 359, -466, -295
23420, -15809, -3058, 4278, 364, -452, -304
23430, -15778, -3061, 4287, 342, -441, -308
23440, -15742, -3037, 4311, 338, -428, -320
23450, -15764, -3015, 4290, 322, -394, -317
23460, -15755, -2998, 4266, 315, -394, -315
23470, -15725, -3033, 4224, 305, -391, -300
23480, -15723, -3060, 4239, 333, -443, -311
23490, -15745, -3041, 4305, 326, -472, -315
23500, -15793, -3036, 4348, 282, -431, -301
23510, -15776, -3047, 4282, 290, -400, -296
23520, -15763, -3066, 4242, 299, -413, -297
23530, -15741, -3070, 4272, 324, -455, -293
23540, -15727, -3093, 4307, 347, -510, -287
23550, -15741, -3077, 4299, 349, -519, -292
23560, -15725, -3076, 4305, 348, -501, -290
23570, -15760, -3079, 4292, 326, -466, -299
23580, -15761, -3088, 4255, 333, -437, -303
23590, -15771, -3091, 4260, 333, -452, -309
23600, -15766, -3069, 4237, 316, -470, -302
23610, -15742, -3043, 4283, 319, -464, -294
23620, -15735, -3017, 4322, 340, -471, -294
23630, -15727, -3022, 4366, 357, -451, -314
23640, -15765, -3021, 4328, 327, -369, -303
23650, -15812, -3039, 4268, 332, -350, -325
23660, -15739, -3042, 4290, 326, -397, -326
23670, -15709, -3063, 4319, 333, -430, -342
23680, -15720, -3058, 4336, 346, -393, -352
23690, -15722, -3055, 4331, 338, -341, -328
23700, -15753, -3034, 4229, 314, -306, -364
23710, -15760, -3056, 4236, 336, -323, -371
23720, -15739, -3092, 4236, 335, -349, -366
23730, -15758, -3102, 4260, 299, -332, -371
23740, -15805, -3089, 4235, 308, -329, -379
23750, -15818, -3109, 4249, 320, -335, -377
23760, -15832, -3095, 4240, 301, -324, -374
23770, -15736, -3105, 4185, 248, -273, -377
23780, -15683, -3140, 4166, 256, -272, -412
23790, -15678, -3154, 4141, 250, -242, -428
23800, -15733, -3141, 4154, 280, -213, -443
23810, -15743, -3100, 4179, 286, -191, -414
23820, -15689, -3008, 4163, 305, -203, -392
23830, -15739, -3016, 4216, 273, -144, -384
23840, -15894, -3089, 4274, 251, -111, -415
23850, -15997, -3129, 4283, 222, -82, -407
23860, -16102, -3175, 4200, 220, -166, -460
23870, -15998, -3225, 4105, 143, -274, -548
23880, -15882, -3237, 4106, 137, -371, -653
23890, -15738, -3170, 4108, 114, -387, -737
23900, -15880, -3179, 4128, -8, -385, -979
23910, -15992, -3192, 4146, -105, -465, -1160
23920, -16109, -3220, 4178, -203, -585, -1359
23930, -15525, -3447, 3888, -284, -780, -1603
23940, -15362, -3408, 3742, -499, -858, -1977
23950, -15903, -3191, 3999, -931, -1027, -2812
23960, -16287, -3084, 4640, -998, -1162, -3230
23970, -15685, -3098, 4224, -472, -944, -2437
23980, -15217, -3028, 3852, -223, -510, -1837
23990, -15363, -3329, 4067, -438, -469, -1784
24000, -15687, -3608, 4200, -464, -707, -1942
24010, -16054, -3923, 4336, -525, -803, -2071
24020, -16263, -4242, 4646, -457, -1065, -2072
24030, -15918, -4246, 4571, -297, -1209, -1959
24040, -15589, -4206, 4387, -171, -1260, -1879
24050, -15326, -3928, 4398, -149, -1197, -1922
24060, -15200, -3972, 4293, -13, -1103, -1818
24070, -15092, -3980, 4191, 159, -987, -1614
24080, -15053, -4139, 4020, 237, -732, -1434
24090, -15218, -4293, 4174, 229, -649, -1473
24100, -15379, -4544, 4267, 304, -595, -1456
24110, -15567, -5131, 4290, 581, -625, -1178
24120, -15407, -5143, 4128, 727, -772, -947
24130, -15200, -4871, 3991, 884, -944, -702
24140, -14906, -4211, 4027, 1040, -1095, -439
24150, -14471, -3847, 4215, 1356, -1191, 92
24160, -14696, -3595, 4579, 1439, -1268, 206
24170, -15165, -3414, 5020, 1465, -1225, 197
24180, -15965, -3552, 5268, 1450, -458, 114
24190, -16076, -3849, 4875, 1385, -26, 26
24200, -15996, -4110, 4470, 1305, 228, -95
24210, -15222, -4315, 3807, 1330, 284, 22
24220, -14885, -4356, 3625, 1362, 289, 60
24230, -14872, -4347, 3498, 1445, 325, -3
24240, -15097, -4283, 3552, 1468, 337, -76
24250, -15541, -4368, 3869, 1443, 67, -70
24260, -15698, -4541, 4086, 1394, -136, -164
24270, -15941, -4667, 4492, 1192, -135, -439
24280, -15878, -4551, 4433, 1150, -198, -556
24290, -15781, -4452, 4448, 1036, -314, -706
24300, -15284, -4339, 4736, 903, -467, -818
24310, -15139, -4359, 4842, 928, -423, -775
24320, -15068, -4395, 4882, 957, -315, -725
24330, -15002, -4376, 4767, 951, -179, -636
24340, -15377, -4166, 4463, 766, -106, -455
24350, -15558, -4036, 4223, 557, -188, -371
24360, -15774, -3913, 4142, 291, -148, -295
24370, -15775, -3752, 4319, 0, 8, -20
24380, -15615, -3631, 4508, 28, -83, 106
24390, -15451, -3803, 4670, 61, -199, 121
24400, -15609, -3753, 4066, 93, -8, 136
24410, -15553, -4026, 4071, -132, 235, 233
24420, -15579, -4617, 4611, -133, 248, 204
24430, -15472, -4010, 4626, 451, 127, 690
24440, -15240, -3604, 4721, 565, 453, 903
24450, -15422, -3583, 4593, 644, 706, 860
24460, -15921, -3215, 4352, 609, 839, 849
24470, -15741, -3458, 4432, 446, 1030, 1129
24480, -15164, -3963, 4200, 609, 1500, 1299
24490, -14667, -4401, 3968, 760, 2156, 1463
24500, -15099, -4516, 3900, 1048, 3207, 1343
24510, -16152, -3472, 3674, 1322, 2042, 814
24520, -15901, -3467, 3485, 1329, 1370, 537
24530, -15387, -3476, 3676, 801, 861, 494
24540, -15283, -3691, 3651, 596, 1078, 662
24550, -15395, -3717, 3385, 550, 1443, 787
24560, -15638, -3560, 3093, 444, 1731, 866
24570, -16192, -3453, 2673, 106, 1797, 835
24580, -16353, -3219, 2408, 30, 1555, 752
24590, -16211, -3229, 2265, -34, 1085, 660
24600, -16102, -3089, 2501, -198, 640, 551
24610, -16114, -2627, 2980, -530, 4, 406
24620, -16076, -2548, 3115, -691, 57, 317
24630, -15977, -2490, 3034, -817, 254, 216
24640, -15708, -2713, 2787, -970, 698, -151
24650, -15858, -2955, 2792, -941, 822, -393
24660, -16147, -3114, 2856, -877, 716, -595
24670, -16341, -2697, 2836, -786, 112, -666
24680, -16399, -2555, 2863, -781, -61, -701
24690, -16436, -2647, 2898, -673, -67, -841
24700, -16558, -2826, 2877, -593, -87, -969
24710, -16440, -3185, 3087, -581, -276, -909
24720, -16358, -3179, 2996, -537, -338, -810
24730, -16218, -3026, 2902, -531, -424, -658
24740, -15953, -2785, 2730, -670, -602, -486
24750, -15844, -3028, 2825, -746, -650, -529
24760, -15797, -3766, 2818, -670, -654, -698
24770, -15798, -3995, 2768, -613, -677, -706
24780, -15800, -4288, 2755, -505, -685, -711
24790, -15872, -4461, 2793, -375, -723, -730
24800, -15902, -3995, 2870, -218, -768, -645
24810, -15946, -3765, 2883, -249, -700, -605
24820, -15991, -3641, 2911, -298, -590, -575
24830, -16036, -3673, 2847, -379, -480, -547
24840, -16060, -3957, 2810, -366, -532, -550
24850, -15944, -4214, 2728, -310, -590, -498
24860, -15672, -4521, 2622, -74, -601, -404
24870, -15675, -4558, 2610, 66, -583, -384
24880, -15706, -4513, 2639, 223, -573, -398
24890, -15680, -4131, 2763, 452, -677, -395
24900, -15708, -3924, 2810, 491, -704, -400
24910, -15769, -3739, 2817, 516, -666, -388
24920, -15816, -3643, 2837, 492, -567, -367
24930, -15911, -3676, 2805, 498, -385, -353
24940, -15925, -3715, 2795, 520, -361, -363
24950, -15919, -3742, 2784, 566, -378, -355
24960, -15735, -3681, 2833, 603, -380, -292
24970, -15728, -3672, 2893, 621, -388, -299
24980, -15812, -3569, 2936, 689, -439, -329
24990, -15851, -3479, 2976, 724, -466, -339
25000, -15898, -3377, 2980, 782, -471, -364
25010, -15946, -3317, 2935, 847, -477, -402
25020, -16008, -3234, 2890, 894, -476, -465
25030, -16042, -3213, 2830, 941, -498, -437
25040, -16008, -3262, 2833, 958, -565, -369
25050, -15952, -3515, 2799, 947, -745, -252
25060, -15950, -3589, 2833, 980, -777, -228
25070, -15949, -3616, 2861, 991, -826, -197
25080, -15940, -3549, 2966, 1017, -901, -69
25090, -15974, -3551, 2933, 1064, -863, -23
25100, -16007, -3581, 2884, 1065, -753, 43
25110, -16162, -3641, 3013, 1083, -696, 115
25120, -16168, -3642, 3075, 1212, -852, 272
25130, -16131, -3620, 3131, 1301, -956, 328
25140, -16154, -3617, 3144, 1389, -965, 384
25150, -16034, -3514, 3148, 1560, -996, 506
25160, -15942, -3476, 3198, 1570, -1050, 524
25170, -15965, -3431, 3219, 1599, -1013, 546
25180, -16085, -3519, 3176, 1582, -944, 595
25190, -16145, -3588, 3228, 1541, -1003, 584
25200, -16197, -3647, 3274, 1467, -1011, 552
25210, -16039, -3606, 3178, 1413, -934, 535
25220, -16000, -3576, 3163, 1427, -905, 529
25230, -15949, -3533, 3193, 1454, -934, 537
25240, -15805, -3424, 3291, 1482, -1079, 524
25250, -15807, -3399, 3350, 1463, -1091, 506
25260, -15824, -3338, 3373, 1465, -1121, 485
25270, -15874, -3090, 3270, 1407, -963, 525
25280, -15857, -3047, 3292, 1358, -872, 494
25290, -15922, -3043, 3281, 1304, -851, 434
25300, -16002, -3020, 3369, 1262, -856, 403
25310, -15982, -2978, 3496, 1250, -789, 391
25320, -15913, -2826, 3474, 1342, -756, 410
25330, -15838, -2729, 3413, 1358, -699, 408
25340, -15838, -2707, 3405, 1313, -611, 360
25350, -15899, -2689, 3448, 1219, -662, 261
25360, -15854, -2633, 3483, 1224, -720, 255
25370, -15800, -2620, 3480, 1215, -703, 258
25380, -15884, -2402, 3496, 1155, -599, 239
25390, -15889, -2255, 3405, 1108, -617, 244
25400, -15947, -2217, 3382, 1034, -554, 226
25410, -16049, -2128, 3369, 917, -538, 169
25420, -15863, -2133, 3365, 730, -531, 72
25430, -15778, -2236, 3347, 708, -531, 8
25440, -15904, -2490, 3385, 422, -657, -260
25450, -15916, -2512, 3419, 376, -669, -293
25460, -15868, -2511, 3483, 320, -716, -309
25470, -15847, -2536, 3601, 224, -751, -366
25480, -15847, -2474, 3591, 200, -731, -412
25490, -15863, -2385, 3586, 183, -703, -458
25500, -15900, -2278, 3526, 46, -685, -557
25510, -15915, -2346, 3524, -81, -660, -614
25520, -15896, -2472, 3493, -206, -633, -658
25530, -15864, -2709, 3563, -340, -605, -713
25540, -15853, -2854, 3558, -444, -553, -752
25550, -15803, -2950, 3555, -445, -509, -749
25560, -15771, -2981, 3543, -413, -463, -761
25570, -15819, -3067, 3588, -396, -399, -820
25580, -15870, -3012, 3625, -343, -378, -827
25590, -16002, -2956, 3715, -282, -365, -821
25600, -16271, -2774, 3794, -219, -442, -733
25610, -16198, -2665, 3704, -106, -425, -635
25620, -15998, -2541, 3568, -179, -327, -603
25630, -15780, -2504, 3455, -302, -114, -634
25640, -15653, -2657, 3297, -532, 172, -815
25650, -15581, -2744, 3354, -645, 137, -882
25660, -15641, -2982, 3484, -685, 76, -942
25670, -15960, -3068, 3656, -546, 76, -1040
25680, -16067, -3039, 3646, -455, 105, -1009
25690, -16276, -2789, 3525, -424, 200, -931
25700, -16252, -2627, 3373, -444, 287, -841
25710, -16187, -2635, 3282, -553, 265, -770
25720, -16127, -2627, 3116, -555, 243, -753
25730, -16012, -2874, 3042, -661, 62, -711
25740, -15967, -3127, 3044, -647, 35, -676
25750, -15981, -3441, 3115, -641, 82, -659
25760, -15998, -3640, 3362, -570, 71, -547
25770, -16044, -3708, 3406, -533, 53, -501
25780, -16133, -3776, 3398, -438, 151, -450
25790, -16092, -3782, 3350, -192, 195, -373
25800, -16150, -3577, 3214, -85, 133, -335
25810, -15966, -3537, 3150, -46, -8, -256
25820, -15999, -3396, 3231, -10, -64, -277
25830, -15897, -3126, 3363, -29, -47, -226
25840, -15957, -3072, 3359, -15, 48, -260
25850, -16026, -3139, 3301, -22, 112, -298
25860, -16126, -3279, 3171, -63, 82, -228
25870, -16122, -3389, 3165, -57, -57, -156
25880, -16072, -3464, 3131, 33, -227, -114
25890, -15970, -3432, 3104, 98, -353, -57
25900, -15951, -3487, 3153, 205, -466, -61
25910, -15983, -3400, 3177, 255, -515, -58
25920, -15965, -3162, 3171, 303, -584, -45
25930, -15914, -3322, 3177, 341, -501, -64
25940, -16039, -3351, 3154, 430, -427, -134
25950, -16068, -3082, 3083, 462, -535, -128
25960, -16011, -3163, 3033, 474, -481, -143
25970, -15996, -3350, 2985, 488, -459, -187
25980, -15973, -3410, 2989, 521, -489, -188
25990, -15822, -3206, 3046, 604, -588, -157
26000, -15751, -3225, 3074, 653, -553, -213
26010, -15753, -3143, 3100, 738, -510, -257
26020, -15736, -2744, 3104, 675, -475, -227
26030, -15840, -2957, 3124, 631, -456, -341
26040, -16094, -3206, 3071, 591, -368, -443
26050, -16240, -2750, 2724, 596, -246, -319
26060, -16179, -2769, 2707, 488, -258, -278
26070, -16089, -3025, 2840, 452, -404, -271
26080, -15980, -3054, 2967, 460, -491, -217
26090, -16028, -3029, 2981, 471, -396, -205
26100, -16096, -3057, 2931, 530, -365, -282
26110, -16086, -2987, 2954, 545, -427, -314
26120, -15890, -2822, 3078, 534, -597, -315
26130, -15856, -2840, 3096, 493, -568, -331
26140, -15909, -2956, 3130, 441, -471, -336
26150, -15987, -3015, 3158, 433, -480, -335
26160, -16015, -3055, 3180, 444, -513, -349
26170, -15985, -3045, 3180, 432, -500, -348
26180, -15973, -3037, 3156, 320, -333, -362
26190, -15971, -3042, 3133, 284, -235, -358
26200, -15997, -3065, 3095, 230, -162, -354
26210, -16025, -3166, 3042, 187, -121, -335
26220, -16006, -3196, 3014, 184, -162, -316
26230, -16013, -3184, 2984, 164, -199, -306
26240, -15994, -3201, 2969, 143, -236, -337
26250, -15987, -3203, 2943, 137, -234, -353
26260, -15937, -3231, 2948, 116, -201, -338
26270, -15909, -3266, 2945, 157, -203, -344
26280, -15963, -3303, 2892, 211, -184, -342
26290, -16022, -3247, 2854, 260, -174, -322
26300, -16060, -3170, 2822, 289, -235, -314
26310, -16025, -3068, 2909, 258, -317, -284
26320, -16005, -3051, 2944, 248, -332, -291
26330, -16004, -3028, 2955, 224, -257, -265
26340, -16031, -3020, 2967, 197, -206, -269
26350, -15941, -3094, 2872, 168, -168, -283
26360, -15889, -3127, 2909, 168, -179, -280
26370, -16038, -3089, 2937, 215, -21, -311
26380, -16052, -3113, 2918, 225, -17, -302
26390, -16028, -3158, 2873, 255, -66, -296
26400, -16003, -3191, 2889, 288, -174, -286
26410, -16009, -3201, 2910, 341, -242, -298
26420, -16010, -3227, 2925, 345, -243, -304
26430, -16011, -3255, 2914, 369, -158, -301
26440, -16030, -3234, 2886, 343, -121, -313
26450, -16017, -3230, 2844, 358, -70, -307
26460, -16036, -3200, 2786, 377, -47, -331
26470, -16007, -3141, 2684, 333, -57, -355
26480, -16002, -3114, 2668, 364, -91, -363
26490, -16025, -3097, 2663, 382, -117, -365
26500, -16016, -3115, 2690, 389, -138, -362
26510, -16036, -3147, 2688, 358, -111, -341
26520, -16050, -3189, 2665, 365, -57, -353
26530, -16096, -3229, 2597, 355, -17, -351
26540, -16070, -3203, 2568, 354, -60, -327
26550, -16045, -3205, 2602, 327, -113, -317
26560, -16003, -3167, 2641, 345, -164, -317
26570, -16016, -3079, 2694, 392, -249, -334
26580, -16026, -3030, 2698, 369, -265, -345
26590, -16022, -3012, 2701, 379, -292, -353
26600, -16047, -3009, 2723, 367, -342, -360
26610, -16046, -3042, 2744, 354, -360, -365
26620, -16077, -3072, 2728, 343, -348, -357
26630, -16100, -3127, 2719, 321, -315, -362
26640, -16101, -3155, 2694, 316, -268, -336
26650, -16063, -3178, 2679, 301, -256, -316
26660, -16035, -3190, 2641, 309, -298, -306
26670, -16015, -3178, 2629, 290, -280, -301
26680, -15987, -3163, 2635, 293, -277, -303
26690, -15982, -3148, 2625, 271, -249, -313
26700, -15969, -3136, 2611, 250, -217, -325
26710, -15982, -3117, 2595, 253, -190, -344
26720, -16010, -3167, 2533, 255, -156, -356
26730, -16019, -3243, 2484, 277, -172, -360
26740, -16072, -3254, 2472, 331, -248, -370
26750, -16096, -3230, 2506, 330, -293, -362
26760, -16086, -3225, 2516, 315, -329, -359
26770, -16093, -3190, 2493, 334, -325, -350
26780, -16060, -3189, 2507, 328, -334, -338
26790, -16040, -3166, 2508, 306, -364, -331
26800, -16032, -3156, 2513, 324, -370, -321
26810, -16040, -3158, 2537, 336, -387, -321
26820, -16047, -3188, 2513, 324, -380, -300
26830, -16040, -3210, 2531, 330, -404, -322
26840, -16029, -3228, 2526, 341, -402, -305
26850, -15977, -3212, 2557, 346, -436, -294
26860, -16016, -3215, 2554, 383, -447, -309
26870, -16062, -3221, 2514, 369, -425, -318
26880, -16032, -3232, 2494, 348, -418, -303
26890, -16044, -3239, 2501, 362, -456, -325
26900, -16061, -3236, 2521, 369, -458, -314
26910, -16071, -3218, 2543, 395, -499, -302
