timestamp, ax, ay, az, gx, gy, gz
0, 13881, 3266, 8832, 146, -62, -124
10, 13872, 3212, 8804, 194, -57, -142
20, 13885, 3058, 8822, 256, -39, -144
30, 13864, 2997, 8817, 260, -36, -163
40, 13828, 2967, 8766, 261, -68, -170
50, 13777, 2948, 8703, 303, -134, -186
60, 13892, 2993, 8634, 340, -302, -154
70, 13973, 3022, 8595, 352, -357, -142
80, 14070, 3137, 8527, 385, -313, -155
90, 14008, 3210, 8575, 404, -257, -179
100, 13950, 3249, 8656, 402, -246, -209
110, 13886, 3294, 8721, 432, -246, -244
120, 13718, 3367, 8684, 463, -381, -271
130, 13671, 3369, 8674, 480, -528, -295
140, 13699, 3395, 8671, 455, -659, -284
150, 13902, 3419, 8733, 434, -691, -310
160, 13895, 3425, 8782, 420, -593, -326
170, 13876, 3403, 8825, 391, -527, -331
180, 13810, 3400, 8857, 337, -536, -344
190, 13690, 3372, 8957, 259, -633, -371
200, 13636, 3363, 8950, 254, -664, -352
210, 13665, 3342, 8998, 253, -702, -337
220, 13713, 3285, 9055, 233, -705, -311
230, 13840, 3168, 9059, 239, -581, -244
240, 13799, 3079, 9131, 261, -498, -242
250, 13737, 2998, 9190, 286, -430, -241
260, 13694, 2900, 9170, 358, -418, -286
270, 13685, 2881, 9107, 368, -409, -297
280, 13707, 2922, 9088, 392, -389, -290
290, 13777, 3034, 9056, 408, -349, -277
300, 13835, 3104, 9051, 363, -205, -268
310, 13829, 3126, 9077, 353, -135, -254
320, 13803, 3108, 9059, 342, -108, -236
330, 13748, 3105, 9003, 341, -233, -181
340, 13727, 3140, 8909, 365, -337, -161
350, 13819, 3211, 8754, 391, -537, -97
360, 13866, 3249, 8717, 375, -576, -54
370, 13939, 3262, 8671, 352, -565, -19
380, 13945, 3279, 8654, 374, -607, -253
390, 13948, 3258, 8634, 330, -492, -15
400, 13914, 3244, 8683, 320, -491, -40
410, 13901, 3223, 8729, 307, -486, -52
420, 13954, 3200, 8692, 327, -417, -74
430, 13926, 3210, 8719, 316, -381, -109
440, 13900, 3208, 8726, 265, -338, -128
450, 13897, 3198, 8786, 227, -257, -142
460, 13832, 3213, 8897, 238, -170, -161
470, 13787, 3239, 8936, 247, -151, -195
480, 13735, 3237, 8946, 259, -173, -212
490, 13738, 3193, 8969, 303, -279, -207
500, 13740, 3176, 9007, 286, -287, -198
510, 13790, 3177, 9054, 281, -283, -191
520, 13753, 3146, 9048, 290, -285, -207
530, 13732, 3116, 9067, 312, -371, -217
540, 13713, 3092, 9049, 321, -406, -225
550, 13765, 3096, 9072, 359, -447, -212
560, 13790, 3069, 9047, 387, -430, -204
570, 13796, 3064, 9043, 409, -415, -218
580, 13754, 3088, 9010, 406, -366, -258
590, 13730, 3074, 9031, 402, -398, -305
600, 13731, 3046, 9044, 368, -413, -307
610, 13751, 3010, 9061, 338, -433, -303
620, 13773, 2977, 9048, 393, -506, -324
630, 13820, 2962, 9026, 395, -515, -296
640, 13805, 2943, 8980, 407, -521, -294
650, 13819, 2976, 8959, 416, -570, -299
660, 13830, 2961, 8943, 434, -588, -301
670, 13827, 2970, 8915, 447, -618, -296
680, 13834, 2964, 8904, 447, -591, -295
690, 13861, 2957, 8894, 449, -664, -306
700, 13885, 2929, 8890, 449, -670, -286
710, 13899, 2918, 8883, 486, -682, -280
720, 13865, 3005, 8857, 555, -633, -291
730, 13878, 3045, 8855, 593, -611, -290
740, 13887, 3065, 8894, 586, -572, -272
750, 13843, 3103, 8947, 576, -612, -256
760, 13828, 3109, 8941, 586, -647, -246
770, 13820, 3119, 8974, 612, -627, -227
780, 13796, 3149, 8998, 631, -631, -219
790, 13739, 3172, 9022, 643, -720, -232
800, 13788, 3204, 9000, 673, -786, -232
810, 13804, 3193, 8928, 696, -868, -230
820, 13769, 3196, 8833, 725, -1051, -247
830, 13780, 3220, 8812, 690, -970, -257
840, 13887, 3268, 8762, 540, -765, -247
850, 13933, 3221, 8812, 535, -772, -218
860, 13976, 3207, 8779, 533, -757, -196
870, 13939, 3185, 8796, 515, -714, -214
880, 13970, 3226, 8692, 476, -667, -212
890, 13899, 3227, 8632, 456, -626, -231
900, 13887, 3225, 8665, 420, -627, -223
910, 13944, 3197, 8734, 372, -617, -199
920, 13982, 3166, 8691, 398, -586, -210
930, 13936, 3116, 8719, 415, -592, -222
940, 13970, 3158, 8672, 439, -611, -204
950, 13984, 3176, 8665, 438, -645, -219
960, 14019, 3186, 8625, 443, -679, -196
970, 14022, 3178, 8543, 425, -661, -207
980, 14004, 3133, 8559, 338, -615, -212
990, 13996, 3128, 8582, 327, -563, -197
1000, 13948, 3104, 8580, 329, -512, -209
1010, 13909, 3090, 8565, 318, -475, -225
1020, 13918, 3101, 8699, 309, -443, -232
1030, 13931, 3103, 8709, 293, -440, -240
1040, 13929, 3080, 8735, 300, -447, -257
1050, 13948, 3105, 8741, 294, -448, -266
1060, 13932, 3091, 8701, 298, -443, -288
1070, 13937, 3078, 8728, 262, -406, -296
1080, 13969, 3074, 8744, 268, -392, -293
1090, 13954, 3054, 8774, 259, -380, -311
1100, 13957, 3052, 8808, 262, -388, -316
1110, 13951, 3057, 8793, 289, -432, -300
1120, 13969, 3031, 8755, 298, -445, -300
1130, 13932, 3011, 8757, 321, -454, -281
1140, 14004, 3037, 8711, 350, -465, -281
1150, 13995, 3039, 8649, 318, -411, -294
1160, 13989, 3036, 8637, 322, -372, -292
1170, 14000, 3058, 8667, 306, -330, -284
1180, 13974, 3070, 8686, 321, -318, -271
1190, 13971, 3080, 8685, 314, -327, -277
1200, 13982, 3096, 8666, 339, -330, -273
1210, 13950, 3112, 8666, 338, -328, -272
1220, 13946, 3098, 8675, 322, -312, -274
1230, 13952, 3096, 8691, 327, -314, -278
1240, 13954, 3103, 8711, 327, -318, -275
1250, 13970, 3132, 8725, 318, -307, -251
1260, 13949, 3123, 8715, 341, -307, -266
1270, 13944, 3136, 8743, 333, -298, -267
1280, 13944, 3141, 8743, 340, -289, -262
1290, 13910, 3160, 8772, 336, -279, -262
1300, 13888, 3173, 8794, 340, -305, -268
1310, 13875, 3141, 8774, 343, -307, -254
1320, 13877, 3151, 8743, 336, -316, -269
1330, 13877, 3173, 8759, 325, -310, -282
1340, 13910, 3147, 8780, 287, -287, -283
1350, 13952, 3174, 8786, 270, -294, -306
1360, 13906, 3185, 8776, 254, -288, -297
1370, 13847, 3157, 8843, 248, -290, -308
1380, 13839, 3097, 8923, 243, -291, -278
1390, 13827, 3091, 8910, 270, -358, -288
1400, 13857, 3067, 8846, 281, -413, -273
1410, 13855, 3070, 8754, 280, -466, -275
1420, 13938, 3058, 8757, 277, -446, -265
1430, 13942, 3061, 8760, 267, -417, -253
1440, 13987, 3045, 8803, 273, -424, -255
1450, 13952, 3063, 8717, 286, -310, -249
1460, 13935, 3091, 8754, 264, -220, -235
1470, 13914, 3082, 8790, 251, -180, -249
1480, 13902, 3062, 8884, 247, -152, -232
1490, 13888, 3046, 8899, 262, -183, -258
1500, 13898, 3030, 8874, 276, -189, -261
1510, 13868, 3034, 8869, 294, -202, -266
1520, 13880, 3001, 8849, 337, -212, -269
1530, 13862, 2990, 8843, 331, -210, -272
1540, 13862, 2994, 8846, 331, -199, -293
1550, 13864, 2987, 8852, 301, -172, -279
1560, 13835, 2981, 8866, 326, -175, -295
1570, 13839, 2970, 8902, 307, -167, -294
1580, 13872, 2959, 8972, 302, -167, -275
1590, 13867, 2982, 8964, 360, -253, -275
1600, 13891, 3004, 8917, 375, -287, -290
1610, 13776, 3081, 8863, 371, -279, -296
1620, 13772, 3102, 8881, 319, -249, -276
1630, 13780, 3101, 8944, 296, -247, -271
1640, 13809, 3030, 9010, 305, -297, -264
1650, 13806, 3035, 8973, 324, -336, -270
1660, 13834, 3040, 8948, 330, -328, -265
1670, 13785, 3062, 8942, 346, -318, -287
1680, 13797, 3099, 8935, 336, -286, -289
1690, 13804, 3107, 8963, 313, -282, -286
1700, 13804, 3113, 8969, 333, -298, -287
1710, 13815, 3138, 8974, 335, -338, -287
1720, 13809, 3146, 8964, 322, -326, -269
1730, 13791, 3121, 8963, 330, -338, -268
1740, 13746, 3103, 8964, 330, -342, -276
1750, 13762, 3109, 8958, 347, -386, -291
1760, 13805, 3096, 8963, 324, -382, -277
1770, 13795, 3120, 8936, 320, -406, -286
1780, 13816, 3096, 8924, 316, -383, -277
1790, 13797, 3073, 8940, 286, -363, -279
1800, 13788, 3042, 8984, 290, -348, -286
1810, 13783, 3035, 8996, 289, -335, -278
1820, 13785, 3021, 9006, 273, -365, -285
1830, 13807, 3020, 8995, 286, -372, -290
1840, 13800, 3022, 9022, 275, -352, -289
1850, 13805, 3018, 9016, 280, -352, -284
1860, 13806, 2995, 9009, 302, -366, -297
1870, 13784, 2994, 9036, 290, -363, -298
1880, 13791, 3014, 9041, 306, -356, -294
1890, 13783, 3022, 9017, 311, -362, -289
1900, 13786, 3058, 8998, 297, -351, -287
1910, 13783, 3048, 9032, 295, -349, -285
1920, 13779, 3037, 9055, 298, -340, -276
1930, 13814, 3033, 9063, 298, -360, -272
1940, 13790, 3014, 8984, 312, -378, -284
1950, 13766, 3019, 8982, 328, -387, -279
1960, 13745, 3036, 8984, 330, -337, -274
1970, 13737, 3058, 8996, 323, -323, -283
1980, 13779, 3023, 9070, 300, -352, -310
1990, 13787, 3030, 9101, 294, -350, -290
2000, 13789, 3057, 9074, 319, -370, -300
2010, 13788, 3047, 9090, 337, -389, -270
2020, 13770, 3025, 9100, 352, -394, -264
2030, 13725, 3021, 9054, 358, -408, -269
2040, 13680, 3010, 8989, 384, -438, -285
2050, 13717, 3034, 9040, 342, -417, -267
2060, 13731, 3034, 9087, 331, -412, -262
2070, 13829, 3011, 9104, 333, -402, -258
2080, 13825, 3063, 8984, 330, -345, -210
2090, 13911, 2896, 9174, 279, -327, -243
2100, 13752, 3043, 9031, 324, -289, -282
2110, 13769, 3024, 9127, 280, -313, -289
2120, 13750, 3048, 9101, 295, -306, -296
2130, 13753, 3051, 9107, 296, -333, -294
2140, 13742, 3022, 9102, 327, -364, -285
2150, 13739, 3037, 9065, 329, -392, -291
2160, 13736, 3020, 9070, 344, -410, -286
2170, 13714, 3037, 9037, 344, -411, -297
2180, 13741, 3050, 9057, 329, -414, -302
2190, 13748, 3046, 9027, 334, -421, -297
2200, 13751, 3016, 9083, 307, -396, -302
2210, 13745, 2993, 9112, 304, -385, -300
2220, 13710, 2997, 9129, 318, -400, -283
2230, 13781, 2990, 9110, 326, -439, -299
2240, 13769, 3015, 9053, 356, -486, -310
2250, 13743, 3023, 9038, 330, -451, -287
2260, 13755, 3030, 9095, 316, -422, -287
2270, 13726, 3008, 9132, 312, -413, -274
2280, 13745, 2972, 9128, 328, -416, -260
2290, 13717, 2962, 9116, 346, -422, -278
2300, 13690, 2954, 9098, 352, -407, -279
2310, 13700, 2999, 9108, 324, -398, -296
2320, 13722, 3008, 9116, 314, -403, -291
2330, 13751, 3030, 9134, 324, -428, -303
2340, 13743, 3037, 9120, 324, -437, -313
2350, 13759, 3044, 9109, 314, -422, -291
2360, 13701, 3044, 9115, 353, -415, -294
2370, 13671, 3041, 9106, 323, -431, -291
2380, 13684, 3020, 9110, 337, -464, -286
2390, 13716, 3036, 9082, 357, -486, -291
2400, 13738, 3030, 9060, 340, -461, -294
2410, 13742, 3034, 9037, 340, -466, -304
2420, 13773, 3031, 9017, 316, -435, -296
2430, 13738, 3025, 9092, 316, -401, -301
2440, 13736, 3025, 9112, 319, -405, -312
2450, 13719, 3015, 9094, 333, -415, -298
2460, 13714, 3023, 9131, 337, -423, -306
2470, 13752, 3024, 9086, 340, -446, -301
2480, 13741, 3009, 9104, 314, -414, -290
2490, 13748, 3009, 9098, 330, -419, -292
2500, 13730, 3004, 9113, 328, -411, -305
2510, 13725, 3016, 9114, 314, -409, -305
2520, 13730, 3007, 9128, 307, -411, -294
2530, 13726, 2985, 9129, 301, -408, -288
2540, 13721, 2993, 9115, 337, -415, -301
2550, 13718, 3002, 9121, 315, -416, -314
2560, 13735, 3000, 9133, 320, -427, -314
2570, 13733, 2993, 9123, 324, -423, -299
2580, 13749, 3012, 9120, 323, -405, -292
2590, 13733, 3007, 9142, 328, -416, -294
2600, 13717, 3026, 9139, 335, -431, -299
2610, 13688, 3013, 9124, 342, -435, -294
2620, 13697, 3032, 9112, 333, -440, -282
2630, 13713, 3019, 9112, 315, -432, -276
2640, 13735, 3024, 9128, 317, -425, -278
2650, 13765, 3033, 9141, 327, -433, -279
2660, 13725, 3002, 9053, 342, -409, -275
2670, 13681, 3007, 9073, 344, -375, -285
2680, 13668, 3031, 9108, 327, -364, -289
2690, 13724, 3036, 9150, 315, -397, -299
2700, 13738, 3022, 9186, 317, -427, -304
2710, 13755, 3036, 9175, 309, -442, -312
2720, 13746, 3059, 9174, 323, -448, -303
2730, 13740, 3016, 9196, 375, -511, -292
2740, 13716, 2975, 9159, 378, -526, -287
2750, 13635, 2997, 9033, 408, -563, -298
2760, 13653, 3025, 9025, 391, -538, -300
2770, 13741, 2989, 9183, 352, -488, -279
2780, 13783, 2970, 9193, 345, -495, -282
2790, 13724, 2954, 9137, 356, -480, -283
2800, 13726, 2982, 9100, 333, -436, -305
2810, 13724, 2998, 9114, 329, -428, -297
2820, 13725, 3009, 9127, 317, -416, -294
2830, 13724, 3020, 9132, 304, -417, -294
2840, 13701, 3028, 9110, 333, -467, -285
2850, 13697, 3028, 9098, 331, -471, -293
2860, 13736, 3004, 9101, 349, -508, -302
2870, 13740, 2990, 9113, 356, -512, -302
2880, 13732, 2987, 9090, 364, -521, -307
2890, 13745, 3010, 9126, 367, -522, -301
2900, 13731, 3009, 9158, 365, -529, -298
2910, 13765, 3016, 9157, 385, -565, -308
2920, 13780, 3036, 9134, 397, -613, -313
2930, 13744, 3059, 9046, 391, -644, -316
2940, 13718, 3053, 9054, 392, -631, -319
2950, 13730, 3035, 9086, 377, -621, -309
2960, 13749, 2980, 9117, 372, -608, -294
2970, 13725, 2959, 9097, 406, -614, -296
2980, 13724, 2956, 9095, 387, -594, -303
2990, 13706, 2952, 9087, 386, -596, -312
3000, 13728, 2995, 9079, 386, -637, -328
3010, 13768, 2983, 9114, 376, -673, -335
3020, 13804, 2997, 9091, 381, -685, -328
3030, 13775, 3021, 9103, 350, -732, -315
3040, 13807, 3005, 9105, 379, -744, -315
3050, 13761, 3020, 9062, 417, -735, -317
3060, 13700, 3030, 9069, 432, -759, -316
3070, 13747, 3073, 8997, 470, -821, -319
3080, 13743, 3080, 8976, 426, -843, -305
3090, 13784, 3091, 8936, 416, -870, -302
3100, 13831, 3108, 8928, 407, -873, -293
3110, 13859, 3099, 8883, 417, -856, -289
3120, 13883, 3085, 8861, 408, -811, -293
3130, 13860, 3035, 8922, 368, -692, -300
3140, 13850, 3035, 8947, 368, -671, -305
3150, 13814, 3031, 8948, 375, -681, -313
3160, 13855, 3036, 8912, 417, -732, -295
3170, 13851, 3050, 8906, 442, -736, -304
3180, 13833, 3008, 8925, 404, -744, -306
3190, 13856, 3018, 8890, 397, -747, -297
3200, 13845, 3026, 8880, 402, -729, -306
3210, 13860, 3032, 8872, 375, -727, -290
3220, 13880, 3033, 8856, 388, -708, -289
3230, 13865, 3032, 8874, 386, -689, -301
3240, 13878, 3027, 8858, 385, -680, -280
3250, 13880, 3027, 8861, 403, -667, -302
3260, 13888, 3042, 8872, 391, -675, -306
3270, 13895, 3045, 8832, 440, -716, -295
3280, 13895, 3040, 8846, 425, -739, -305
3290, 13931, 3037, 8840, 394, -719, -292
3300, 13904, 3035, 8834, 400, -710, -302
3310, 13890, 3065, 8804, 419, -723, -298
3320, 13858, 3081, 8801, 400, -713, -296
3330, 13862, 3058, 8819, 415, -743, -280
3340, 13904, 3064, 8821, 406, -747, -269
3350, 13883, 3055, 8814, 394, -746, -281
3360, 13971, 3090, 8766, 418, -774, -278
3370, 13949, 3060, 8714, 423, -798, -288
3380, 13975, 3071, 8687, 412, -771, -279
3390, 13936, 3104, 8715, 390, -665, -304
3400, 13954, 3102, 8726, 372, -669, -299
3410, 13950, 3092, 8728, 367, -701, -303
3420, 14003, 3064, 8736, 370, -725, -293
3430, 13970, 3053, 8715, 400, -699, -291
3440, 13995, 3064, 8727, 414, -709, -279
3450, 13976, 3041, 8743, 416, -710, -278
3460, 13926, 3034, 8671, 457, -756, -296
3470, 13905, 3052, 8623, 422, -790, -307
3480, 13997, 3030, 8643, 425, -796, -294
3490, 14049, 3015, 8629, 424, -772, -283
3500, 14084, 2996, 8618, 390, -690, -299
3510, 14042, 3017, 8589, 391, -632, -295
3520, 14007, 3040, 8552, 396, -580, -287
3530, 13973, 3318, 8628, 384, -520, -290
3540, 13981, 3101, 8656, 310, -473, -280
3550, 13988, 3096, 8656, 326, -482, -288
3560, 14002, 3115, 8648, 315, -493, -286
3570, 14018, 3120, 8593, 313, -493, -302
3580, 14015, 3114, 8586, 331, -479, -301
3590, 13998, 3089, 8581, 307, -431, -302
3600, 13995, 3083, 8611, 294, -403, -299
3610, 14000, 3048, 8617, 307, -405, -309
3620, 14004, 3044, 8625, 319, -424, -314
3630, 13986, 3051, 8660, 312, -413, -299
3640, 13991, 3065, 8702, 319, -421, -297
3650, 14024, 3093, 8733, 333, -457, -299
3660, 14018, 3092, 8618, 339, -472, -291
3670, 13970, 3074, 8598, 357, -475, -295
3680, 13954, 3063, 8612, 324, -441, -288
3690, 13981, 3014, 8710, 313, -434, -289
3700, 14005, 3012, 8695, 320, -433, -293
3710, 14004, 3026, 8652, 328, -437, -297
3720, 14017, 3032, 8629, 323, -426, -311
3730, 13988, 3054, 8642, 328, -389, -309
3740, 14010, 3042, 8651, 312, -392, -313
3750, 14026, 3038, 8678, 317, -398, -317
3760, 14014, 3042, 8669, 314, -399, -304
3770, 14045, 3045, 8648, 309, -410, -306
3780, 14026, 3027, 8639, 321, -400, -307
3790, 13984, 3051, 8611, 324, -399, -299
3800, 13968, 3071, 8607, 344, -405, -303
3810, 13976, 3073, 8619, 342, -411, -301
3820, 13963, 3087, 8634, 332, -416, -308
3830, 14006, 3089, 8675, 302, -366, -292
3840, 13982, 3078, 8711, 311, -392, -307
3850, 13978, 3074, 8695, 326, -396, -310
3860, 13965, 3067, 8691, 316, -382, -284
3870, 13990, 3066, 8673, 319, -392, -288
3880, 13981, 3064, 8683, 337, -404, -299
3890, 13988, 3060, 8670, 329, -398, -289
3900, 13982, 3055, 8656, 334, -390, -284
3910, 13970, 3041, 8681, 317, -390, -285
3920, 13956, 3035, 8682, 313, -385, -289
3930, 13975, 3032, 8708, 301, -383, -288
3940, 13982, 3030, 8702, 303, -388, -282
3950, 13988, 3028, 8682, 320, -406, -306
3960, 13994, 3049, 8697, 308, -394, -306
3970, 13960, 3032, 8688, 288, -371, -293
3980, 14003, 3032, 8724, 311, -381, -292
3990, 13970, 3033, 8730, 302, -383, -292
4000, 13977, 3054, 8705, 303, -381, -285
4010, 13982, 3075, 8706, 317, -383, -293
4020, 13955, 3055, 8697, 315, -382, -284
4030, 13959, 3037, 8729, 303, -367, -288
4040, 13952, 3041, 8755, 308, -372, -291
4050, 14004, 3059, 8701, 338, -424, -292
4060, 13999, 3059, 8656, 348, -416, -288
4070, 13976, 3049, 8633, 340, -398, -294
4080, 13926, 3091, 8722, 319, -337, -301
4090, 13990, 3061, 8757, 309, -361, -309
4100, 14010, 3051, 8752, 310, -391, -318
4110, 14007, 3062, 8719, 366, -377, -311
4120, 13988, 3073, 8713, 337, -349, -282
4130, 13947, 3041, 8729, 318, -336, -262
4140, 13893, 3020, 8778, 323, -373, -285
4150, 13898, 3030, 8722, 352, -417, -285
4160, 13890, 3039, 8683, 351, -445, -293
4170, 13973, 3022, 8709, 366, -425, -290
4180, 14002, 2984, 8765, 317, -391, -287
4190, 14013, 2991, 8778, 328, -373, -285
4200, 13967, 3019, 8743, 338, -367, -278
4210, 13928, 3046, 8738, 308, -324, -282
4220, 13939, 3051, 8766, 300, -315, -291
4230, 13900, 3062, 8779, 295, -309, -285
4240, 13902, 3077, 8791, 304, -333, -298
4250, 13909, 3075, 8781, 306, -354, -294
4260, 13934, 3063, 8760, 322, -396, -304
4270, 13942, 3089, 8719, 338, -409, -305
4280, 13930, 3061, 8697, 319, -382, -296
4290, 13937, 3041, 8702, 300, -361, -294
4300, 13959, 3026, 8726, 295, -348, -291
4310, 13925, 3000, 8767, 292, -328, -303
4320, 13902, 2994, 8812, 278, -312, -294
4330, 13944, 2993, 8822, 323, -343, -303
4340, 13957, 3035, 8818, 342, -441, -312
4350, 13928, 3039, 8764, 343, -458, -308
4360, 13917, 3062, 8760, 334, -449, -306
4370, 13891, 3021, 8804, 299, -401, -288
4380, 13906, 3007, 8839, 301, -388, -274
4390, 13922, 2990, 8833, 323, -398, -287
4400, 13919, 3006, 8794, 335, -390, -292
4410, 13906, 3018, 8786, 337, -367, -293
4420, 13910, 3024, 8798, 317, -347, -287
4430, 13891, 3017, 8832, 302, -351, -286
4440, 13916, 3035, 8815, 307, -362, -302
4450, 13925, 3034, 8809, 300, -372, -298
4460, 13929, 3032, 8812, 313, -388, -313
4470, 13921, 3037, 8805, 338, -389, -307
4480, 13889, 3034, 8787, 344, -405, -313
4490, 13885, 3025, 8795, 334, -399, -284
4500, 13872, 3033, 8814, 317, -395, -282
4510, 13907, 3044, 8789, 342, -445, -297
4520, 13927, 3035, 8793, 317, -440, -291
4530, 13949, 3044, 8767, 324, -431, -287
4540, 13919, 3021, 8776, 322, -392, -293
4550, 13905, 3027, 8788, 322, -372, -303
4560, 13898, 3037, 8795, 310, -370, -292
4570, 13919, 3018, 8827, 313, -365, -296
4580, 13900, 3037, 8821, 314, -389, -307
4590, 13912, 3024, 8842, 315, -391, -298
4600, 13908, 3026, 8834, 321, -407, -300
4610, 13901, 3022, 8850, 316, -412, -287
4620, 13899, 3004, 8838, 322, -425, -305
4630, 13904, 3016, 8832, 324, -424, -303
4640, 13888, 3027, 8833, 307, -417, -289
4650, 13897, 3020, 8833, 315, -425, -307
4660, 13867, 3026, 8844, 314, -409, -291
4670, 13911, 3025, 8841, 319, -412, -300
4680, 13915, 3018, 8836, 310, -410, -293
4690, 13901, 3007, 8815, 325, -417, -298
4700, 13903, 3026, 8833, 328, -406, -300
4710, 13904, 3021, 8839, 318, -393, -286
4720, 13891, 3009, 8851, 337, -408, -302
4730, 13891, 3025, 8853, 334, -405, -299
4740, 13903, 3025, 8855, 330, -436, -302
4750, 13892, 3029, 8820, 331, -433, -308
4760, 13891, 3025, 8830, 328, -414, -289
4770, 13852, 3032, 8861, 316, -392, -280
4780, 13903, 3030, 8862, 317, -408, -301
4790, 13938, 3033, 8851, 324, -431, -288
4800, 13929, 3017, 8810, 337, -430, -292
4810, 13834, 3024, 8803, 316, -372, -286
4820, 13830, 3031, 8849, 330, -356, -287
4830, 13911, 3059, 8866, 319, -395, -303
4840, 13891, 3035, 8891, 339, -406, -291
4850, 13881, 3005, 8909, 343, -416, -281
4860, 13836, 2989, 8903, 359, -443, -290
4870, 13812, 2996, 8789, 359, -502, -293
4880, 13875, 3013, 8814, 346, -494, -287
4890, 13906, 3008, 8858, 336, -460, -294
4900, 13934, 2963, 8887, 339, -407, -286
4910, 13902, 2973, 8865, 343, -391, -283
4920, 13852, 2991, 8852, 337, -386, -280
4930, 13860, 3022, 8854, 300, -364, -287
4940, 13863, 3045, 8883, 281, -367, -291
4950, 13872, 3053, 8890, 291, -371, -291
4960, 13858, 3067, 8896, 298, -386, -278
4970, 13858, 3070, 8865, 313, -418, -289
4980, 13866, 3072, 8857, 325, -436, -290
4990, 13869, 3059, 8842, 327, -437, -288
5000, 13867, 3026, 8826, 322, -417, -290
5010, 13909, 3017, 8833, 310, -402, -294
5020, 13899, 2989, 8831, 324, -404, -294
5030, 13881, 2984, 8857, 313, -403, -304
5040, 13861, 2972, 8905, 316, -384, -306
5050, 13896, 2985, 8931, 311, -418, -310
5060, 13892, 2999, 8930, 343, -451, -309
5070, 13871, 3032, 8845, 344, -478, -313
5080, 13833, 3027, 8826, 351, -464, -307
5090, 13829, 3011, 8862, 331, -447, -287
5100, 13899, 2980, 8943, 312, -435, -298
5110, 13882, 2980, 8930, 325, -426, -286
5120, 13856, 2997, 8872, 336, -420, -283
5130, 13846, 3007, 8860, 327, -378, -298
5140, 13838, 3015, 8875, 303, -388, -303
5150, 13856, 3025, 8906, 284, -378, -304
5160, 13884, 3026, 8902, 293, -375, -318
5170, 13886, 3027, 8925, 317, -381, -306
5180, 13861, 3012, 8908, 323, -395, -299
5190, 13852, 3005, 8917, 328, -402, -298
5200, 13822, 3007, 8901, 342, -435, -292
5210, 13840, 3027, 8881, 342, -455, -290
5220, 13851, 3031, 8868, 340, -450, -289
5230, 13858, 3025, 8846, 332, -438, -299
5240, 13883, 3026, 8861, 312, -414, -293
5250, 13881, 3023, 8863, 307, -399, -293
5260, 13863, 3014, 8896, 316, -389, -289
5270, 13843, 3013, 8902, 311, -380, -292
5280, 13850, 2990, 8942, 325, -379, -289
5290, 13831, 3002, 8925, 315, -386, -289
5300, 13846, 3006, 8924, 338, -433, -294
5310, 13862, 3012, 8920, 332, -443, -291
5320, 13866, 3003, 8922, 326, -442, -293
5330, 13854, 3007, 8909, 310, -437, -292
5340, 13863, 3009, 8914, 305, -430, -295
5350, 13856, 2992, 8897, 326, -414, -299
5360, 13862, 2999, 8890, 332, -427, -296
5370, 13856, 2998, 8904, 336, -428, -303
5380, 13836, 2994, 8898, 333, -422, -305
5390, 13870, 2997, 8913, 327, -410, -301
5400, 13841, 2990, 8906, 334, -425, -294
5410, 13856, 2995, 8916, 318, -420, -296
5420, 13854, 3004, 8909, 327, -419, -291
5430, 13853, 3009, 8905, 329, -416, -294
5440, 13861, 2990, 8918, 335, -418, -306
5450, 13860, 2990, 8929, 325, -406, -302
5460, 13832, 2992, 8929, 319, -401, -298
5470, 13845, 3023, 8920, 310, -411, -286
5480, 13822, 3030, 8923, 334, -411, -280
5490, 13806, 3021, 8902, 333, -420, -284
5500, 13829, 3011, 8928, 318, -407, -289
5510, 13857, 3026, 8951, 305, -409, -284
5520, 13891, 3014, 8943, 308, -426, -280
5530, 13851, 3008, 8862, 322, -447, -287
5540, 13788, 2996, 8870, 335, -411, -285
5550, 13796, 3013, 8900, 308, -362, -296
5560, 13816, 3011, 8932, 312, -361, -298
5570, 13887, 2977, 8989, 318, -414, -312
5580, 13886, 3010, 8957, 316, -414, -309
5590, 13853, 3011, 8956, 345, -426, -302
5600, 13824, 2979, 8962, 360, -430, -287
5610, 13791, 2958, 8939, 339, -442, -280
5620, 13757, 2966, 8886, 382, -497, -301
5630, 13790, 2993, 8887, 366, -497, -304
5640, 13884, 2995, 8953, 342, -453, -284
5650, 13896, 2984, 8992, 344, -434, -285
5660, 13880, 2973, 8955, 352, -419, -295
5670, 13820, 3000, 8916, 363, -414, -292
5680, 13810, 3005, 8933, 336, -364, -283
5690, 13829, 3022, 8938, 296, -366, -276
5700, 13831, 3047, 8953, 300, -376, -284
5710, 13829, 3044, 8956, 299, -384, -281
5720, 13836, 3033, 8933, 331, -413, -307
5730, 13829, 3035, 8948, 330, -434, -300
5740, 13830, 3029, 8904, 347, -451, -292
5750, 13841, 3002, 8885, 339, -430, -298
5760, 13866, 2997, 8876, 310, -412, -289
5770, 13866, 2981, 8896, 312, -397, -296
5780, 13858, 2984, 8924, 321, -396, -297
5790, 13821, 2945, 8963, 310, -367, -286
5800, 13843, 2956, 9013, 326, -387, -293
5810, 13857, 2976, 9040, 335, -425, -287
5820, 13841, 2990, 8939, 370, -488, -307
5830, 13812, 2991, 9001, 310, -431, -289
5840, 13843, 2980, 8994, 340, -436, -288
5850, 13810, 2986, 8946, 365, -431, -290
5860, 13784, 2993, 8932, 341, -419, -296
5870, 13775, 2967, 8957, 327, -391, -294
5880, 13818, 2999, 8973, 314, -404, -317
5890, 13849, 3000, 8973, 338, -421, -317
5900, 13869, 3004, 8965, 322, -424, -308
5910, 13841, 3005, 8985, 329, -433, -303
5920, 13812, 2995, 8976, 315, -429, -285
5930, 13809, 3003, 8952, 341, -441, -299
5940, 13788, 2995, 8932, 342, -451, -291
5950, 13812, 3005, 8920, 337, -473, -289
5960, 13819, 3001, 8935, 338, -466, -292
5970, 13828, 2985, 8933, 324, -450, -290
5980, 13851, 3003, 8937, 322, -435, -289
5990, 13852, 2986, 8931, 339, -436, -299
6000, 13822, 2996, 8930, 315, -408, -291
6010, 13812, 2970, 8990, 336, -387, -296
6020, 13795, 2992, 8993, 320, -406, -301
6030, 13808, 2998, 8985, 328, -420, -310
6040, 13825, 3003, 8998, 339, -435, -296
6050, 13831, 2999, 8980, 333, -444, -301
6060, 13827, 2993, 8983, 330, -445, -304
6070, 13843, 2982, 8970, 329, -430, -302
6080, 13829, 2983, 8971, 336, -437, -306
6090, 13818, 2970, 8982, 333, -430, -295
6100, 13808, 2970, 8939, 333, -435, -288
6110, 13813, 2988, 8965, 328, -429, -303
6120, 13818, 2979, 8963, 327, -426, -286
6130, 13820, 2965, 8958, 330, -423, -302
6140, 13800, 2996, 8981, 317, -422, -299
6150, 13809, 2989, 8988, 319, -411, -295
6160, 13821, 2986, 8989, 328, -420, -295
6170, 13813, 2994, 8972, 331, -423, -296
6180, 13829, 2985, 8991, 322, -421, -299
6190, 13840, 2985, 9013, 332, -428, -296
6200, 13819, 2978, 9003, 337, -427, -292
6210, 13822, 2996, 8973, 337, -427, -291
6220, 13814, 3012, 8966, 335, -434, -291
6230, 13792, 3005, 8942, 336, -426, -301
6240, 13796, 2975, 8941, 339, -414, -290
6250, 13792, 2997, 8975, 320, -397, -290
6260, 13831, 3006, 8999, 314, -428, -296
6270, 13877, 3010, 8955, 340, -455, -301
6280, 13865, 2990, 8930, 335, -433, -291
6290, 13786, 2968, 8966, 325, -358, -299
6300, 13741, 2987, 9025, 310, -333, -295
6310, 13802, 2988, 9015, 321, -359, -297
6320, 13836, 2970, 9052, 314, -404, -312
6330, 13830, 2979, 9062, 323, -427, -321
6340, 13832, 2981, 9051, 335, -436, -310
6350, 13808, 2980, 9011, 357, -471, -280
6360, 13794, 2953, 9012, 369, -481, -287
6370, 13774, 2962, 8963, 383, -485, -281
6380, 13754, 3009, 8935, 361, -490, -290
6390, 13818, 3001, 8985, 359, -471, -292
6400, 13846, 2991, 9055, 352, -440, -286
6410, 13854, 2968, 9042, 344, -432, -280
6420, 13812, 2960, 8975, 379, -443, -302
6430, 13771, 2979, 8961, 349, -397, -300
6440, 13783, 2994, 8964, 327, -377, -286
6450, 13804, 3034, 9009, 311, -366, -294
6460, 13790, 3030, 9000, 303, -380, -288
6470, 13801, 3028, 9025, 311, -394, -296
6480, 13789, 3007, 8978, 318, -435, -298
6490, 13790, 2999, 8970, 337, -451, -291
6500, 13809, 3003, 8953, 337, -444, -287
6510, 13811, 2992, 8979, 332, -442, -300
6520, 13821, 2976, 8960, 319, -419, -298
6530, 13815, 2960, 8954, 318, -399, -302
6540, 13800, 2945, 8997, 305, -365, -293
6550, 13786, 2950, 9092, 319, -386, -294
6560, 13825, 2945, 9101, 345, -439, -303
6570, 13819, 2971, 9038, 378, -507, -317
6580, 13774, 2994, 8966, 346, -500, -310
6590, 13776, 2998, 8981, 311, -476, -307
6600, 13785, 2981, 9018, 314, -466, -288
6610, 13820, 2986, 9059, 329, -471, -282
6620, 13801, 2958, 8995, 355, -471, -298
6630, 13764, 2967, 8966, 358, -449, -303
6640, 13773, 2978, 8965, 354, -421, -293
6650, 13768, 2977, 9029, 340, -407, -311
6660, 13792, 2987, 9038, 310, -416, -311
6670, 13810, 2980, 9031, 324, -422, -308
6680, 13802, 3002, 9021, 341, -440, -314
6690, 13794, 3006, 9019, 324, -420, -288
6700, 13796, 3007, 9034, 354, -445, -288
6710, 13763, 3014, 9031, 347, -450, -289
6720, 13790, 3008, 8965, 348, -477, -286
6730, 13786, 3005, 8983, 345, -478, -296
6740, 13809, 3020, 8981, 351, -471, -300
6750, 13821, 2997, 8977, 309, -440, -301
6760, 13817, 2985, 9004, 325, -439, -301
6770, 13820, 2967, 8997, 325, -428, -299
6780, 13804, 2970, 9001, 317, -422, -301
6790, 13816, 2974, 8984, 335, -412, -301
6800, 13779, 3000, 9003, 325, -414, -304
6810, 13756, 2995, 9016, 315, -414, -297
6820, 13798, 2998, 9033, 334, -444, -289
6830, 13792, 2976, 9002, 333, -443, -299
6840, 13790, 2970, 8996, 332, -433, -298
6850, 13771, 2962, 8998, 343, -424, -298
6860, 13765, 2986, 9021, 323, -413, -291
6870, 13775, 2964, 9039, 323, -423, -298
6880, 13779, 2980, 9015, 306, -424, -296
6890, 13789, 2982, 9039, 339, -448, -301
6900, 13776, 2985, 9039, 322, -449, -293
6910, 13780, 2994, 9013, 337, -447, -294
6920, 13786, 3004, 9002, 357, -446, -292
6930, 13790, 2990, 9028, 350, -447, -311
6940, 13782, 2991, 9039, 331, -441, -305
6950, 13798, 2983, 9028, 337, -448, -303
6960, 13799, 2958, 9029, 328, -446, -304
6970, 13795, 2964, 9052, 344, -454, -305
6980, 13773, 2981, 9017, 349, -461, -307
6990, 13798, 2984, 8994, 347, -480, -311
7000, 13786, 2985, 8991, 338, -457, -296
7010, 13780, 2990, 8988, 319, -431, -286
7020, 13802, 2997, 9020, 307, -419, -289
7030, 13841, 3008, 9017, 328, -443, -292
7040, 13851, 3015, 8970, 342, -451, -287
7050, 13810, 2985, 8965, 347, -420, -288
7060, 13725, 2987, 9043, 317, -332, -286
7070, 13751, 2997, 9066, 314, -373, -297
7080, 13814, 2972, 9061, 301, -439, -311
7090, 13824, 2981, 9075, 299, -438, -312
7100, 13791, 3005, 9099, 343, -447, -308
7110, 13793, 3013, 9070, 363, -479, -301
7120, 13782, 2966, 9054, 384, -501, -294
7130, 13746, 2945, 9019, 368, -490, -289
7140, 13714, 2971, 8957, 383, -511, -296
7150, 13790, 2987, 8976, 366, -484, -292
7160, 13819, 2983, 9065, 330, -444, -288
7170, 13829, 2955, 9092, 324, -430, -291
7180, 13795, 2962, 9023, 338, -423, -281
7190, 13777, 2965, 8995, 357, -417, -310
7200, 13766, 2982, 9008, 340, -401, -291
7210, 13773, 3018, 9033, 314, -397, -302
7220, 13777, 3032, 9024, 303, -400, -286
7230, 13775, 3016, 9043, 311, -413, -281
7240, 13775, 3028, 9049, 320, -426, -290
7250, 13783, 3011, 8994, 330, -458, -297
7260, 13786, 3004, 8968, 341, -463, -295
7270, 13773, 2995, 8988, 331, -453, -299
7280, 13811, 2965, 9007, 315, -423, -307
7290, 13796, 2953, 8984, 307, -398, -303
7300, 13785, 2934, 9019, 316, -394, -299
7310, 13784, 2929, 9132, 321, -407, -292
7320, 13810, 2947, 9089, 346, -461, -289
7330, 13797, 2993, 9015, 363, -502, -300
7340, 13765, 3001, 8988, 363, -484, -310
7350, 13749, 2993, 9039, 343, -467, -301
7360, 13727, 2976, 9060, 319, -460, -298
7370, 13784, 2966, 9079, 329, -483, -289
7380, 13788, 2960, 9030, 363, -490, -298
7390, 13774, 2963, 8984, 347, -471, -298
7400, 13768, 2965, 9016, 313, -408, -302
7410, 13777, 2978, 9035, 303, -400, -306
7420, 13781, 2976, 9043, 308, -417, -313
7430, 13791, 2982, 9050, 311, -423, -313
7440, 13806, 3001, 9040, 324, -439, -315
7450, 13788, 2994, 9042, 350, -447, -306
7460, 13784, 3011, 9046, 339, -455, -300
7470, 13773, 2983, 9015, 364, -479, -291
7480, 13768, 3006, 9001, 360, -484, -287
7490, 13774, 3006, 8980, 341, -480, -284
7500, 13797, 2980, 8993, 341, -461, -296
7510, 13797, 2984, 9002, 334, -448, -296
7520, 13814, 2962, 9007, 316, -434, -302
7530, 13812, 2972, 9020, 313, -426, -302
7540, 13772, 2965, 9040, 314, -409, -300
7550, 13768, 2984, 9033, 322, -407, -299
7560, 13766, 2958, 9062, 322, -421, -289
7570, 13768, 2982, 9056, 323, -456, -298
7580, 13791, 2981, 9036, 344, -475, -294
7590, 13771, 2998, 9028, 341, -471, -288
7600, 13790, 2978, 9043, 331, -440, -301
7610, 13786, 2955, 9050, 339, -429, -289
7620, 13782, 2975, 9019, 342, -441, -295
7630, 13771, 2959, 9044, 330, -442, -294
7640, 13759, 2965, 9033, 347, -449, -316
7650, 13779, 2972, 9043, 326, -443, -311
7660, 13770, 2984, 9039, 325, -449, -299
7670, 13780, 2976, 9039, 325, -455, -290
7680, 13784, 2986, 9040, 330, -450, -292
7690, 13777, 2969, 9041, 339, -459, -301
7700, 13778, 2976, 9041, 340, -446, -302
7710, 13772, 2971, 9044, 328, -438, -298
7720, 13773, 2980, 9044, 328, -441, -296
7730, 13792, 2990, 9043, 330, -443, -299
7740, 13791, 2977, 9059, 338, -455, -303
7750, 13796, 2974, 9046, 339, -453, -316
7760, 13814, 2975, 9060, 341, -455, -301
7770, 13786, 2978, 9044, 352, -460, -291
7780, 13768, 2998, 9027, 352, -475, -298
7790, 13773, 3010, 9025, 348, -466, -300
7800, 13754, 2981, 9020, 319, -431, -294
7810, 13752, 2958, 9041, 324, -430, -292
7820, 13795, 2960, 8987, 331, -407, -279
7830, 13723, 2949, 9027, 335, -371, -288
7840, 13737, 2974, 9086, 302, -397, -298
7850, 13784, 2968, 9072, 329, -453, -323
7860, 13811, 2963, 9096, 310, -468, -327
7870, 13781, 2991, 9101, 336, -447, -308
7880, 13771, 3002, 9091, 354, -476, -294
7890, 13769, 2964, 9074, 369, -511, -295
7900, 13754, 2944, 9025, 376, -521, -295
7910, 13739, 2965, 8964, 400, -536, -303
7920, 13727, 2995, 8958, 375, -530, -300
7930, 13801, 2998, 8992, 350, -491, -289
7940, 13829, 2953, 9101, 333, -450, -293
7950, 13817, 2945, 9069, 339, -434, -286
7960, 13781, 2942, 9022, 358, -439, -295
7970, 13743, 2993, 9001, 330, -416, -292
7980, 13774, 3013, 9024, 320, -409, -275
7990, 13764, 3023, 9040, 305, -413, -287
8000, 13793, 3024, 9063, 309, -433, -286
8010, 13757, 3020, 9040, 334, -435, -293
8020, 13781, 3019, 9019, 353, -478, -300
8030, 13792, 3010, 9028, 342, -485, -296
8040, 13788, 2987, 8989, 319, -453, -291
8050, 13804, 2964, 9002, 312, -443, -301
8060, 13824, 2978, 9002, 338, -442, -305
8070, 13774, 2931, 9022, 304, -406, -303
8080, 13785, 2918, 9105, 304, -389, -291
8090, 13783, 2941, 9110, 313, -412, -288
8100, 13813, 2965, 9066, 378, -530, -309
8110, 13793, 2985, 8989, 368, -520, -303
8120, 13753, 3008, 8984, 356, -490, -299
8130, 13747, 2974, 9098, 319, -460, -297
8140, 13761, 2973, 9119, 322, -476, -285
8150, 13785, 2945, 9088, 357, -512, -290
8160, 13781, 2971, 8986, 366, -497, -312
8170, 13762, 2973, 8996, 345, -446, -299
8180, 13755, 2977, 9030, 339, -420, -302
8190, 13753, 2974, 9066, 325, -420, -313
8200, 13795, 2993, 9076, 319, -420, -318
8210, 13793, 3007, 9066, 336, -438, -306
8220, 13794, 3019, 9063, 339, -448, -303
8230, 13781, 2997, 9038, 352, -480, -296
8240, 13764, 3001, 9029, 358, -481, -298
8250, 13771, 2977, 9009, 369, -483, -287
8260, 13772, 2982, 9019, 353, -487, -286
8270, 13801, 2989, 8984, 325, -478, -292
8280, 13788, 2990, 8992, 340, -466, -305
8290, 13823, 2980, 9006, 329, -458, -307
8300, 13803, 2986, 9019, 326, -436, -300
8310, 13796, 2982, 9018, 324, -436, -310
8320, 13765, 2977, 9015, 332, -426, -300
8330, 13758, 2974, 9051, 331, -430, -295
8340, 13744, 2971, 9059, 354, -453, -289
8350, 13765, 2997, 9059, 352, -486, -298
8360, 13800, 2978, 9041, 337, -469, -291
8370, 13806, 2986, 9037, 337, -461, -303
8380, 13815, 2960, 9042, 334, -461, -303
8390, 13783, 2956, 9046, 336, -457, -299
8400, 13788, 2961, 9045, 332, -449, -297
8410, 13769, 2977, 9052, 328, -451, -305
8420, 13772, 2964, 9056, 351, -477, -303
8430, 13772, 2991, 9028, 351, -484, -300
8440, 13778, 2983, 9025, 347, -481, -300
8450, 13779, 2973, 9029, 354, -487, -292
8460, 13765, 2984, 9031, 336, -480, -304
8470, 13760, 2980, 9050, 324, -477, -300
8480, 13791, 2995, 9050, 359, -505, -301
8490, 13795, 2984, 9047, 371, -520, -306
8500, 13796, 2983, 9040, 362, -523, -303
8510, 13791, 2970, 9008, 362, -551, -307
8520, 13813, 2964, 9011, 361, -548, -303
8530, 13817, 2996, 9001, 352, -541, -291
8540, 13800, 3009, 8982, 354, -526, -295
8550, 13773, 2981, 8995, 340, -508, -301
8560, 13778, 2986, 9011, 335, -496, -290
8570, 13822, 3005, 9023, 349, -525, -304
8580, 13835, 3001, 9013, 350, -557, -306
8590, 13833, 2988, 8969, 370, -544, -297
8600, 13753, 2974, 9019, 369, -518, -307
8610, 13771, 2991, 9041, 343, -524, -311
8620, 13809, 2990, 9000, 352, -572, -318
8630, 13834, 2977, 9004, 354, -595, -326
8640, 13838, 2990, 9021, 350, -547, -309
8650, 13831, 3002, 9027, 359, -561, -303
8660, 13817, 2977, 9012, 362, -579, -296
8670, 13807, 2933, 9008, 390, -629, -295
8680, 13778, 2965, 8963, 400, -647, -307
8690, 13758, 2976, 8918, 413, -670, -329
8700, 13786, 3007, 8917, 400, -663, -321
8710, 13870, 2987, 9002, 377, -632, -292
8720, 13885, 2976, 9007, 387, -628, -294
8730, 13848, 2970, 8981, 400, -630, -300
8740, 13812, 3014, 8869, 412, -616, -311
8750, 13832, 3026, 8899, 361, -586, -299
8760, 13834, 3026, 8916, 345, -571, -292
8770, 13807, 3040, 8937, 331, -565, -298
8780, 13830, 3039, 8957, 355, -610, -294
8790, 13853, 3049, 8924, 368, -645, -304
8800, 13867, 3023, 8852, 388, -665, -305
8810, 13875, 3012, 8819, 361, -621, -300
8820, 13870, 2956, 8871, 337, -553, -305
8830, 13848, 2977, 8953, 364, -563, -303
8840, 13899, 2981, 8937, 363, -593, -291
8850, 13897, 3005, 8913, 386, -635, -305
8860, 13879, 3013, 8814, 394, -625, -313
8870, 13848, 3038, 8822, 369, -614, -317
8880, 13844, 3007, 8875, 333, -577, -306
8890, 13859, 3000, 8914, 329, -558, -290
8900, 13859, 2981, 8908, 377, -597, -302
8910, 13874, 2984, 8871, 380, -594, -296
8920, 13876, 2996, 8849, 380, -600, -320
8930, 13886, 3022, 8833, 386, -588, -332
8940, 13896, 3005, 8855, 359, -591, -326
8950, 13948, 3014, 8841, 357, -578, -323
8960, 13900, 3018, 8829, 358, -554, -325
8970, 13895, 3023, 8804, 357, -531, -314
8980, 13912, 3031, 8820, 348, -521, -305
8990, 13885, 3026, 8831, 346, -527, -300
9000, 13888, 3051, 8817, 346, -541, -294
9010, 13876, 3047, 8761, 342, -536, -288
9020, 13903, 3060, 8804, 334, -573, -300
9030, 13936, 3031, 8789, 334, -554, -291
9040, 13949, 3033, 8762, 336, -499, -302
9050, 13937, 3016, 8792, 321, -472, -302
9060, 13917, 3021, 8800, 326, -447, -298
9070, 13909, 3011, 8820, 313, -432, -297
9080, 13911, 2998, 8815, 331, -441, -299
9090, 13907, 3004, 8821, 323, -430, -290
9100, 13922, 2995, 8826, 313, -430, -297
9110, 13929, 2974, 8818, 322, -410, -296
9120, 13893, 3003, 8836, 325, -404, -293
9130, 13894, 2989, 8834, 313, -397, -301
9140, 13889, 2992, 8819, 311, -406, -296
9150, 13887, 2987, 8825, 306, -409, -295
9160, 13898, 2996, 8833, 314, -417, -301
9170, 13894, 2984, 8832, 303, -405, -299
9180, 13885, 2989, 8838, 322, -411, -303
9190, 13881, 2994, 8834, 313, -399, -302
9200, 13899, 3020, 8854, 328, -407, -300
9210, 13885, 3002, 8878, 325, -406, -298
9220, 13886, 3039, 8859, 329, -420, -296
9230, 13894, 3034, 8837, 339, -428, -301
9240, 13901, 3030, 8810, 323, -414, -289
9250, 13892, 3025, 8824, 325, -407, -291
9260, 13896, 3012, 8830, 323, -400, -290
9270, 13887, 3017, 8861, 303, -380, -294
9280, 13912, 3016, 8855, 316, -412, -303
9290, 13941, 3016, 8843, 305, -429, -292
9300, 13887, 2989, 8826, 337, -414, -283
9310, 13848, 3004, 8833, 352, -418, -306
9320, 13850, 3035, 8831, 327, -417, -300
9330, 13958, 3007, 8846, 313, -435, -309
9340, 13962, 3011, 8881, 303, -413, -306
9350, 13905, 3015, 8871, 328, -392, -299
9360, 13873, 2976, 8880, 330, -394, -290
9370, 13862, 2988, 8877, 341, -391, -275
9380, 13829, 2977, 8898, 342, -409, -291
9390, 13847, 2972, 8854, 355, -461, -315
9400, 13867, 2996, 8814, 339, -459, -296
9410, 13911, 2997, 8831, 341, -458, -297
9420, 13925, 2971, 8906, 333, -425, -285
9430, 13903, 2968, 8895, 344, -398, -290
9440, 13884, 2992, 8865, 358, -386, -292
9450, 13858, 3024, 8830, 344, -368, -287
9460, 13845, 3042, 8862, 295, -355, -278
9470, 13855, 3053, 8885, 295, -358, -291
9480, 13838, 3037, 8898, 293, -354, -290
9490, 13833, 3036, 8898, 302, -374, -294
9500, 13855, 3020, 8872, 329, -403, -284
9510, 13875, 3030, 8864, 332, -427, -299
9520, 13873, 3025, 8840, 323, -418, -299
9530, 13899, 2988, 8890, 322, -419, -299
9540, 13888, 2961, 8845, 299, -384, -283
9550, 13864, 2952, 8875, 308, -393, -301
9560, 13863, 2962, 8910, 306, -375, -303
9570, 13914, 2971, 8929, 353, -431, -302
9580, 13902, 3000, 8902, 344, -460, -312
9590, 13846, 2997, 8840, 324, -442, -308
9600, 13815, 2980, 8875, 307, -435, -299
9610, 13828, 2969, 8917, 302, -420, -283
9620, 13850, 2969, 8923, 327, -441, -277
9630, 13884, 2980, 8893, 332, -452, -282
9640, 13868, 2997, 8868, 346, -437, -296
9650, 13866, 3022, 8890, 336, -406, -305
9660, 13854, 3018, 8906, 315, -381, -311
9670, 13865, 3002, 8912, 306, -382, -316
9680, 13872, 2984, 8927, 314, -377, -313
9690, 13863, 3001, 8933, 318, -386, -305
9700, 13851, 3005, 8892, 341, -421, -308
9710, 13850, 3002, 8885, 346, -427, -305
9720, 13841, 3014, 8873, 341, -419, -301
9730, 13839, 3007, 8893, 325, -423, -280
9740, 13849, 3018, 8900, 342, -435, -288
9750, 13852, 3002, 8862, 326, -443, -285
9760, 13887, 2995, 8865, 335, -440, -293
9770, 13899, 2990, 8875, 319, -418, -289
9780, 13868, 2988, 8879, 308, -397, -297
9790, 13867, 3006, 8913, 325, -385, -293
9800, 13825, 2977, 8920, 327, -396, -300
9810, 13828, 2985, 8926, 324, -398, -295
9820, 13874, 2976, 8914, 332, -434, -297
9830, 13866, 2972, 8900, 327, -419, -300
9840, 13868, 2969, 8896, 313, -408, -289
9850, 13817, 2967, 8920, 320, -401, -303
9860, 13829, 2978, 8939, 328, -413, -307
9870, 13840, 2993, 8927, 331, -428, -307
9880, 13868, 2993, 8923, 314, -420, -285
9890, 13852, 2987, 8910, 331, -435, -299
9900, 13866, 2994, 8917, 322, -438, -305
9910, 13871, 2999, 8929, 319, -428, -310
9920, 13849, 3003, 8918, 329, -425, -301
9930, 13842, 2995, 8909, 330, -416, -287
9940, 13828, 3001, 8907, 324, -403, -280
9950, 13836, 3001, 8940, 307, -404, -297
9960, 13843, 2989, 8967, 318, -405, -292
9970, 13875, 3025, 8952, 339, -439, -290
9980, 13880, 3020, 8878, 334, -461, -291
9990, 13850, 2982, 8888, 349, -416, -293
10000, 13816, 2963, 8923, 331, -384, -289
10010, 13810, 2984, 8947, 330, -390, -308
10020, 13870, 2977, 8937, 332, -453, -328
10030, 13897, 2965, 8972, 300, -424, -319
10040, 13850, 3000, 8959, 318, -408, -320
10050, 13878, 2990, 8957, 343, -434, -278
10060, 13847, 2974, 8947, 355, -450, -280
10070, 13781, 2957, 8941, 370, -468, -290
10080, 13781, 2962, 8888, 376, -496, -297
10090, 13824, 2991, 8876, 360, -511, -307
10100, 13856, 2994, 8870, 342, -480, -295
10110, 13892, 2956, 8986, 356, -418, -299
10120, 13858, 2961, 8969, 341, -402, -288
10130, 13838, 2977, 8935, 356, -404, -292
10140, 13801, 3009, 8931, 325, -392, -288
10150, 13822, 3014, 8945, 327, -392, -283
10160, 13837, 3021, 8958, 320, -380, -283
10170, 13813, 3011, 8959, 318, -388, -290
10180, 13816, 3026, 8946, 334, -432, -302
10190, 13824, 3030, 8909, 336, -441, -293
10200, 13844, 3009, 8907, 326, -448, -288
10210, 13823, 2999, 8883, 304, -440, -287
10220, 13850, 2974, 8910, 315, -425, -300
10230, 13849, 2953, 8902, 321, -414, -300
10240, 13827, 2923, 8933, 314, -400, -303
10250, 13853, 2934, 8982, 312, -382, -290
10260, 13876, 2955, 8989, 329, -438, -303
10270, 13882, 2966, 8942, 345, -459, -295
10280, 13866, 2980, 8940, 336, -469, -304
10290, 13777, 2990, 8941, 331, -454, -315
10300, 13788, 2972, 8996, 316, -444, -295
10310, 13841, 2960, 9002, 359, -491, -293
10320, 13848, 2963, 8960, 360, -484, -303
10330, 13827, 2978, 8920, 362, -454, -295
10340, 13826, 2983, 8944, 331, -402, -292
10350, 13827, 2991, 8977, 329, -407, -318
10360, 13827, 2991, 8971, 324, -417, -320
10370, 13848, 2986, 8957, 329, -433, -322
10380, 13858, 2994, 8955, 322, -421, -316
10390, 13835, 2995, 8962, 329, -430, -302
10400, 13832, 3004, 8946, 337, -438, -297
10410, 13822, 3001, 8938, 360, -441, -284
10420, 13802, 3012, 8929, 353, -453, -290
10430, 13809, 3016, 8910, 335, -461, -286
10440, 13852, 3018, 8921, 327, -453, -284
10450, 13851, 3003, 8919, 342, -458, -299
10460, 13862, 2999, 8910, 319, -429, -297
10470, 13856, 2992, 8945, 314, -415, -300
10480, 13820, 2967, 8954, 349, -412, -303
10490, 13821, 2960, 8960, 340, -415, -310
10500, 13821, 2969, 8982, 333, -417, -300
10510, 13819, 2955, 8975, 335, -422, -294
10520, 13851, 2971, 8965, 305, -440, -295
10530, 13851, 2972, 8956, 320, -443, -293
10540, 13832, 2979, 8957, 327, -435, -297
10550, 13828, 2957, 8956, 316, -416, -299
10560, 13816, 2957, 8952, 332, -428, -300
10570, 13793, 2980, 8943, 309, -428, -299
10580, 13784, 2980, 8966, 319, -420, -293
10590, 13825, 2982, 8969, 323, -431, -295
10600, 13824, 2986, 8980, 318, -430, -294
10610, 13836, 2998, 8987, 317, -421, -301
10620, 13816, 3005, 8989, 340, -441, -298
10630, 13832, 2991, 8981, 344, -433, -294
10640, 13813, 2990, 8992, 349, -438, -289
10650, 13805, 3005, 8969, 345, -447, -290
10660, 13814, 3003, 8955, 347, -446, -293
10670, 13826, 2990, 8967, 330, -431, -290
10680, 13813, 2971, 8976, 315, -433, -297
10690, 13841, 2988, 8966, 326, -446, -293
10700, 13865, 2976, 8963, 341, -471, -300
10710, 13894, 2972, 8912, 363, -464, -291
10720, 13793, 2955, 8951, 351, -391, -295
10730, 13791, 2957, 8964, 353, -407, -317
10740, 13829, 2974, 8966, 334, -429, -318
10750, 13881, 2971, 8965, 310, -439, -317
10760, 13853, 2989, 9003, 308, -419, -313
10770, 13837, 3030, 8999, 334, -423, -303
10780, 13804, 2980, 9002, 356, -450, -284
10790, 13778, 2971, 8998, 361, -463, -290
10800, 13890, 2986, 9017, 334, -467, -292
10810, 13870, 2972, 9050, 342, -439, -302
10820, 13840, 2959, 8981, 357, -425, -299
10830, 13787, 2987, 8957, 342, -407, -295
10840, 13787, 2981, 8949, 329, -399, -283
10850, 13794, 2980, 8946, 304, -396, -294
10860, 13798, 3006, 8982, 288, -395, -293
10870, 13789, 3020, 8984, 302, -419, -293
10880, 13803, 3013, 8982, 313, -435, -293
10890, 13824, 3012, 8927, 324, -461, -292
10900, 13816, 2991, 8924, 332, -455, -293
10910, 13827, 3004, 8924, 314, -429, -297
10920, 13835, 2990, 8929, 314, -420, -291
10930, 13818, 2957, 8958, 323, -417, -296
10940, 13805, 2922, 8998, 333, -410, -302
10950, 13817, 2919, 9033, 314, -408, -306
10960, 13853, 2959, 9016, 329, -486, -309
10970, 13850, 2977, 8963, 376, -513, -315
10980, 13795, 2975, 8932, 362, -500, -313
10990, 13763, 2960, 8933, 334, -456, -306
11000, 13785, 2962, 9037, 320, -456, -304
11010, 13827, 2955, 9038, 334, -469, -285
11020, 13823, 2969, 8992, 342, -484, -287
11030, 13779, 2985, 8924, 353, -440, -295
11040, 13789, 2977, 8958, 329, -416, -309
11050, 13815, 2972, 8986, 320, -404, -316
11060, 13830, 2999, 9012, 304, -410, -314
11070, 13821, 2998, 9001, 326, -426, -317
11080, 13837, 2998, 8972, 315, -425, -319
11090, 13779, 3010, 8998, 356, -440, -306
11100, 13779, 2994, 8994, 334, -457, -298
11110, 13766, 3010, 8987, 340, -473, -283
11120, 13807, 3025, 8960, 354, -497, -295
11130, 13841, 3008, 8941, 355, -485, -283
11140, 13858, 3004, 8939, 351, -478, -295
11150, 13868, 2982, 8953, 336, -466, -303
11160, 13844, 2973, 8957, 307, -423, -305
11170, 13830, 2958, 8949, 300, -405, -308
11180, 13810, 2952, 8991, 305, -396, -295
11190, 13799, 2955, 9015, 343, -432, -305
11200, 13789, 2956, 9009, 326, -441, -286
11210, 13821, 2964, 8985, 337, -460, -296
11220, 13836, 2973, 9004, 336, -455, -299
11230, 13827, 2974, 8984, 337, -439, -293
11240, 13807, 2980, 8974, 315, -422, -299
11250, 13796, 2966, 8977, 322, -417, -300
11260, 13774, 2960, 8996, 316, -420, -304
11270, 13786, 2953, 8992, 323, -414, -314
11280, 13794, 2969, 9016, 324, -409, -305
11290, 13801, 2983, 9032, 319, -427, -301
11300, 13802, 2980, 9012, 333, -427, -301
11310, 13811, 2972, 9000, 343, -445, -301
11320, 13806, 2984, 9030, 353, -446, -299
11330, 13816, 2996, 9022, 342, -450, -299
11340, 13790, 2988, 9002, 345, -461, -301
11350, 13809, 3001, 9001, 331, -459, -298
11360, 13804, 2991, 8980, 324, -447, -288
11370, 13802, 2978, 8977, 339, -457, -301
11380, 13787, 2985, 8991, 328, -432, -295
11390, 13847, 2981, 8976, 336, -458, -298
11400, 13864, 2976, 8965, 358, -470, -298
11410, 13823, 2960, 8934, 344, -445, -292
11420, 13766, 2947, 8975, 323, -401, -284
11430, 13804, 2996, 8999, 347, -436, -316
11440, 13854, 2986, 8969, 329, -445, -316
11450, 13867, 2958, 9010, 310, -446, -325
11460, 13815, 3001, 9053, 333, -415, -299
11470, 13808, 2995, 9023, 338, -433, -292
11480, 13809, 2976, 9031, 359, -461, -283
11490, 13799, 2945, 9029, 377, -476, -278
11500, 13729, 2971, 8937, 374, -509, -299
11510, 13741, 2989, 8930, 353, -513, -299
11520, 13840, 2965, 9046, 329, -463, -287
11530, 13857, 2950, 9066, 329, -431, -277
11540, 13825, 2964, 9046, 350, -432, -288
11550, 13794, 2983, 8958, 345, -416, -283
11560, 13780, 2998, 8945, 334, -419, -301
11570, 13784, 2994, 8986, 312, -403, -294
11580, 13810, 3012, 9023, 298, -400, -300
11590, 13803, 3004, 9002, 338, -435, -308
11600, 13792, 3009, 8991, 317, -445, -289
11610, 13791, 3015, 8952, 332, -468, -296
11620, 13809, 2999, 8957, 328, -459, -305
11630, 13812, 2968, 8967, 325, -441, -299
11640, 13824, 2966, 8945, 323, -431, -295
11650, 13829, 2969, 8943, 326, -436, -297
11660, 13810, 2915, 8984, 322, -421, -305
11670, 13801, 2926, 9025, 324, -410, -306
11680, 13813, 2942, 9052, 336, -421, -305
11690, 13858, 2974, 9002, 351, -487, -318
11700, 13810, 2966, 8960, 367, -502, -322
11710, 13747, 2965, 8965, 350, -471, -305
11720, 13763, 2969, 9034, 318, -439, -298
11730, 13804, 2949, 9059, 338, -475, -285
11740, 13809, 2952, 9017, 364, -500, -292
11750, 13799, 2952, 8966, 361, -484, -301
11760, 13807, 2977, 8955, 356, -454, -294
11770, 13824, 2988, 9045, 336, -443, -319
11780, 13805, 2982, 9024, 340, -439, -317
11790, 13795, 2991, 9029, 329, -435, -301
11800, 13776, 2980, 9022, 347, -450, -300
11810, 13763, 2994, 8994, 345, -458, -288
11820, 13798, 2981, 8969, 338, -464, -290
11830, 13820, 2992, 8968, 338, -466, -294
11840, 13813, 2989, 8948, 337, -470, -292
11850, 13836, 2968, 8957, 324, -463, -295
11860, 13840, 2967, 8979, 343, -441, -307
11870, 13828, 2968, 8981, 325, -412, -296
11880, 13808, 2967, 9002, 319, -405, -296
11890, 13769, 2969, 9025, 320, -418, -294
11900, 13772, 2967, 9026, 337, -420, -297
11910, 13784, 2975, 9017, 347, -437, -307
11920, 13798, 2967, 9026, 319, -439, -290
11930, 13797, 2964, 9036, 328, -451, -298
11940, 13809, 2969, 9018, 335, -452, -308
11950, 13822, 2962, 9008, 343, -449, -294
11960, 13807, 2959, 9014, 343, -439, -292
11970, 13801, 2958, 9018, 319, -440, -300
11980, 13790, 2956, 9003, 321, -430, -298
11990, 13776, 2964, 8994, 336, -436, -309
12000, 13780, 2971, 9000, 324, -427, -306
12010, 13793, 2966, 9041, 320, -424, -297
12020, 13807, 2966, 9011, 339, -446, -302
12030, 13805, 2961, 9022, 333, -446, -294
12040, 13814, 2976, 9012, 330, -437, -310
12050, 13810, 2981, 9028, 321, -430, -288
12060, 13791, 2977, 9030, 341, -447, -293
12070, 13798, 2967, 9024, 341, -451, -300
12080, 13797, 2984, 9011, 343, -459, -292
12090, 13772, 2967, 9003, 332, -455, -286
12100, 13791, 2974, 8976, 331, -450, -296
12110, 13811, 2974, 8998, 321, -431, -296
12120, 13808, 2987, 9001, 314, -422, -290
12130, 13847, 2988, 9011, 311, -444, -284
12140, 13860, 2986, 8969, 312, -436, -275
12150, 13762, 2947, 8986, 336, -377, -286
12160, 13749, 2965, 9044, 327, -372, -293
12170, 13771, 2958, 9033, 327, -406, -298
12180, 13844, 2959, 9028, 309, -438, -318
12190, 13833, 2949, 9051, 321, -421, -320
12200, 13814, 2991, 9067, 338, -419, -298
12210, 13806, 2992, 9072, 345, -439, -291
12220, 13781, 2934, 9055, 357, -458, -286
12230, 13734, 2933, 9036, 365, -477, -294
12240, 13715, 2957, 8980, 368, -503, -310
12250, 13784, 2991, 8970, 326, -481, -280
12260, 13818, 2977, 9051, 347, -459, -291
12270, 13593, 2944, 9058, 333, -437, -286
12280, 13792, 2954, 9011, 373, -429, -294
12290, 13774, 2986, 9006, 356, -412, -294
12300, 13771, 2986, 9002, 327, -391, -288
12310, 13767, 3005, 9031, 307, -382, -298
12320, 13765, 3010, 9055, 297, -379, -286
12330, 13771, 3015, 9037, 324, -403, -290
12340, 13779, 3010, 9011, 327, -428, -300
12350, 13779, 2996, 8987, 345, -451, -295
12360, 13790, 2984, 9004, 337, -456, -298
12370, 13817, 2962, 9011, 328, -442, -294
12380, 13829, 2934, 8993, 321, -411, -288
12390, 13809, 2925, 8972, 335, -411, -308
12400, 13761, 2912, 9005, 317, -381, -307
12410, 13764, 2910, 9098, 306, -390, -292
12420, 13829, 2920, 9109, 343, -434, -304
12430, 13824, 2947, 9064, 363, -472, -306
12440, 13793, 2959, 9007, 362, -497, -317
12450, 13738, 2971, 9033, 321, -457, -316
12460, 13747, 2970, 9091, 326, -455, -298
12470, 13784, 2954, 9114, 341, -471, -295
12480, 13798, 2957, 9026, 362, -494, -292
12490, 13788, 2974, 8993, 368, -455, -295
12500, 13738, 2980, 9022, 329, -401, -306
12510, 13761, 2984, 9046, 328, -400, -309
12520, 13785, 2982, 9061, 327, -412, -313
12530, 13793, 2968, 9048, 325, -416, -316
12540, 13813, 2997, 9077, 335, -430, -314
12550, 13791, 2989, 9070, 335, -435, -301
12560, 13766, 2986, 9062, 344, -447, -295
12570, 13761, 2981, 9009, 344, -454, -296
12580, 13770, 2978, 9012, 366, -470, -303
12590, 13772, 2982, 9011, 333, -474, -287
12600, 13783, 2996, 9009, 326, -462, -293
12610, 13821, 2973, 9008, 303, -434, -299
12620, 13831, 2971, 9018, 314, -421, -302
12630, 13801, 2939, 9021, 295, -404, -300
12640, 13786, 2961, 9051, 321, -379, -307
12650, 13757, 2956, 9061, 312, -396, -299
12660, 13761, 2959, 9066, 314, -407, -300
12670, 13761, 2970, 9049, 336, -427, -304
12680, 13788, 2969, 9056, 316, -428, -281
12690, 13795, 2971, 9057, 333, -433, -287
12700, 13789, 2973, 9056, 325, -426, -294
12710, 13763, 2988, 9071, 326, -423, -297
12720, 13763, 2969, 9054, 325, -427, -297
12730, 13767, 2972, 9070, 332, -421, -291
12740, 13747, 2981, 9092, 337, -442, -298
12750, 13767, 2953, 9108, 362, -448, -286
12760, 13768, 2963, 9027, 357, -465, -291
12770, 13785, 2960, 9024, 323, -419, -298
12780, 13787, 2964, 9078, 311, -403, -297
12790, 13769, 2960, 9099, 319, -397, -298
12800, 13759, 2953, 9107, 350, -418, -298
12810, 13761, 2972, 9066, 336, -449, -303
12820, 13775, 2982, 9049, 338, -456, -292
12830, 13758, 2974, 9036, 332, -453, -292
12840, 13782, 2983, 9053, 342, -441, -297
12850, 13762, 2976, 9066, 372, -446, -296
12860, 13777, 2983, 9021, 370, -458, -298
12870, 13770, 2986, 9015, 357, -451, -295
12880, 13760, 2955, 9036, 327, -421, -295
12890, 13766, 2961, 9062, 327, -415, -287
12900, 13796, 2962, 9052, 317, -422, -295
12910, 13822, 2965, 9027, 316, -439, -281
12920, 13787, 2949, 8995, 341, -409, -288
12930, 13711, 2936, 9043, 330, -356, -288
12940, 13706, 2949, 9118, 311, -336, -291
12950, 13784, 2956, 9097, 328, -429, -321
12960, 13798, 2952, 9122, 310, -444, -309
12970, 13797, 2948, 9115, 312, -430, -306
12980, 13762, 2994, 9134, 320, -436, -296
12990, 13743, 2980, 9142, 347, -470, -284
13000, 13740, 2930, 9042, 381, -511, -296
13010, 13721, 2957, 9003, 393, -533, -302
13020, 13726, 2987, 8975, 375, -518, -297
13030, 13811, 2951, 9065, 356, -443, -283
13040, 13801, 2925, 9115, 329, -429, -279
13050, 13805, 2928, 9112, 349, -421, -285
13060, 13781, 2931, 9074, 358, -425, -296
13070, 13742, 2979, 9044, 340, -419, -308
13080, 13747, 2992, 9061, 291, -393, -290
13090, 13754, 2990, 9067, 295, -399, -296
13100, 13768, 3011, 9084, 330, -417, -300
13110, 13741, 2998, 9075, 342, -427, -293
13120, 13755, 2993, 9062, 340, -451, -301
13130, 13764, 2978, 9032, 345, -454, -308
13140, 13770, 2969, 9012, 320, -457, -302
13150, 13780, 2945, 9031, 330, -448, -301
13160, 13798, 2922, 9038, 337, -436, -302
13170, 13765, 2913, 9056, 310, -418, -308
13180, 13765, 2916, 9084, 297, -400, -301
13190, 13761, 2913, 9111, 314, -393, -290
13200, 13778, 2943, 9119, 357, -481, -310
13210, 13767, 2964, 9053, 375, -535, -319
13220, 13745, 2986, 9045, 350, -514, -315
13230, 13722, 2967, 9107, 318, -467, -308
13240, 13770, 2961, 9137, 324, -465, -301
13250, 13770, 2953, 9148, 334, -488, -290
13260, 13764, 2962, 9029, 366, -468, -292
13270, 13738, 2960, 9031, 355, -443, -301
13280, 13740, 2969, 9055, 327, -427, -298
13290, 13760, 2961, 9077, 327, -405, -309
13300, 13765, 2960, 9098, 316, -421, -311
13310, 13774, 2976, 9102, 318, -431, -312
13320, 13782, 2978, 9097, 319, -429, -310
13330, 13767, 2978, 9094, 333, -461, -297
13340, 13765, 2970, 9078, 346, -481, -301
13350, 13750, 2965, 9050, 346, -490, -297
13360, 13758, 2972, 9019, 344, -484, -290
13370, 13782, 2969, 9010, 353, -487, -297
13380, 13800, 2971, 9021, 338, -474, -296
13390, 13793, 2967, 9042, 323, -446, -304
13400, 13774, 2963, 9047, 334, -453, -302
13410, 13769, 2986, 9058, 333, -423, -300
13420, 13780, 2962, 9074, 325, -419, -289
13430, 13734, 2956, 9092, 324, -434, -297
13440, 13739, 2958, 9104, 345, -449, -295
13450, 13753, 2961, 9100, 343, -486, -303
13460, 13780, 2963, 9080, 340, -491, -301
13470, 13774, 2968, 9065, 327, -491, -302
13480, 13777, 2954, 9067, 339, -488, -305
13490, 13751, 2948, 9068, 338, -462, -300
13500, 13766, 2955, 9083, 334, -467, -309
13510, 13762, 2952, 9092, 334, -469, -316
13520, 13766, 2970, 9086, 330, -487, -312
13530, 13760, 2960, 9074, 335, -489, -298
13540, 13741, 2973, 9068, 350, -500, -311
13550, 13751, 2974, 9091, 351, -496, -306
13560, 13767, 2978, 9068, 335, -511, -315
13570, 13751, 2974, 9063, 348, -519, -313
13580, 13730, 2977, 9071, 348, -530, -309
13590, 13767, 2989, 9068, 342, -537, -298
13600, 13781, 2972, 9066, 351, -549, -299
13610, 13775, 2969, 9071, 351, -555, -310
13620, 13772, 2967, 9067, 356, -564, -306
13630, 13779, 2958, 9070, 363, -565, -299
13640, 13775, 2970, 9041, 364, -581, -300
13650, 13776, 2974, 8999, 393, -600, -319
13660, 13771, 2965, 9004, 369, -586, -289
13670, 13776, 2976, 9010, 363, -569, -293
13680, 13759, 2965, 9032, 363, -583, -310
13690, 13834, 2977, 9017, 370, -609, -314
13700, 13830, 2968, 8987, 351, -600, -291
13710, 13807, 2965, 8963, 360, -595, -298
13720, 13833, 2967, 9011, 370, -679, -338
13730, 13840, 2973, 8991, 367, -677, -336
13740, 13820, 2997, 9021, 384, -662, -331
13750, 13817, 2992, 9021, 384, -667, -300
13760, 13827, 2982, 9006, 418, -686, -298
13770, 13774, 2973, 8946, 437, -708, -310
13780, 13749, 2997, 8918, 443, -751, -324
13790, 13776, 3006, 8894, 426, -746, -313
13800, 13831, 2998, 8945, 404, -724, -306
13810, 13896, 2953, 9001, 425, -704, -312
13820, 13902, 2965, 8953, 442, -705, -304
13830, 13859, 2979, 8893, 444, -697, -302
13840, 13861, 3012, 8852, 397, -649, -300
13850, 13846, 3019, 8872, 375, -645, -294
13860, 13860, 3029, 8905, 351, -621, -293
13870, 13844, 3027, 8887, 384, -632, -299
13880, 13851, 3032, 8873, 398, -670, -306
13890, 13872, 3020, 8836, 392, -679, -302
13900, 13902, 3024, 8834, 380, -690, -308
13910, 13905, 2989, 8813, 376, -658, -310
13920, 13880, 2976, 8776, 363, -647, -312
13930, 13919, 2958, 8826, 353, -671, -309
13940, 13907, 2956, 8863, 378, -603, -314
13950, 13875, 2965, 8884, 374, -574, -306
13960, 13928, 2979, 8913, 386, -603, -302
13970, 13892, 3031, 8833, 406, -698, -341
13980, 13904, 3029, 8796, 373, -721, -324
13990, 13844, 3037, 8768, 380, -681, -311
14000, 13896, 2992, 8906, 338, -689, -288
14010, 13933, 2961, 8896, 343, -664, -281
14020, 13929, 2981, 8850, 392, -678, -301
14030, 13924, 3011, 8771, 396, -665, -320
14040, 13944, 3021, 8746, 376, -619, -311
14050, 13914, 3014, 8774, 380, -594, -324
14060, 13929, 3011, 8795, 353, -592, -323
14070, 13935, 3013, 8786, 358, -601, -328
14080, 13939, 3010, 8745, 375, -614, -319
14090, 13946, 2982, 8785, 366, -639, -313
14100, 13943, 2998, 8740, 365, -624, -287
14110, 13925, 3011, 8726, 383, -613, -299
14120, 13929, 3033, 8723, 368, -627, -303
14130, 13963, 3046, 8713, 370, -614, -299
14140, 13987, 3064, 8690, 365, -607, -306
14150, 13992, 3023, 8708, 312, -565, -294
14160, 13986, 3015, 8700, 351, -541, -306
14170, 13966, 3029, 8712, 349, -528, -315
14180, 13966, 3004, 8717, 355, -510, -304
14190, 13955, 3015, 8728, 338, -503, -297
14200, 13973, 3011, 8714, 352, -495, -298
14210, 13979, 3047, 8705, 323, -478, -295
14220, 13972, 3041, 8716, 340, -475, -303
14230, 13980, 3031, 8715, 332, -463, -299
14240, 13944, 3024, 8740, 322, -430, -292
14250, 13955, 3018, 8733, 324, -430, -299
14260, 13972, 2999, 8699, 318, -432, -307
14270, 13964, 3004, 8706, 309, -398, -295
14280, 13953, 3000, 8725, 306, -393, -298
14290, 13954, 3014, 8755, 304, -386, -298
14300, 13959, 3007, 8753, 305, -386, -296
14310, 13940, 3001, 8748, 329, -397, -309
14320, 13968, 3005, 8746, 334, -389, -298
14330, 13934, 2990, 8718, 335, -410, -297
14340, 13943, 3018, 8740, 310, -405, -296
14350, 13946, 3005, 8754, 326, -405, -294
14360, 13946, 3014, 8746, 332, -416, -294
14370, 13920, 3012, 8740, 344, -415, -283
14380, 13933, 3026, 8739, 329, -402, -280
14390, 13934, 3006, 8753, 315, -390, -284
14400, 13941, 2991, 8785, 328, -389, -302
14410, 13970, 3017, 8750, 330, -421, -302
14420, 13979, 3027, 8732, 325, -428, -312
14430, 13969, 3010, 8714, 310, -411, -290
14440, 13923, 3006, 8732, 316, -391, -290
14450, 13939, 3047, 8755, 337, -392, -308
14460, 13984, 3044, 8766, 303, -391, -292
14470, 13979, 3015, 8765, 309, -358, -302
14480, 13969, 2998, 8789, 298, -325, -284
14490, 13942, 3000, 8797, 316, -314, -280
14500, 13914, 2982, 8792, 329, -332, -275
14510, 13899, 2979, 8803, 327, -363, -289
14520, 13899, 2997, 8778, 319, -405, -305
14530, 13929, 2989, 8718, 337, -433, -292
14540, 13975, 2977, 8756, 324, -406, -285
14550, 13980, 2975, 8817, 314, -371, -290
14560, 13994, 2983, 8838, 323, -357, -287
14570, 13918, 3015, 8775, 351, -362, -281
14580, 13889, 3031, 8768, 326, -326, -275
14590, 13887, 3032, 8754, 316, -313, -294
14600, 13908, 3051, 8819, 293, -309, -294
14610, 13900, 3039, 8816, 281, -310, -291
14620, 13913, 3046, 8805, 298, -342, -297
14630, 13898, 3042, 8792, 305, -351, -303
14640, 13908, 3024, 8785, 316, -361, -297
14650, 13917, 3005, 8780, 306, -354, -294
14660, 13899, 2992, 8776, 302, -353, -295
14670, 13906, 2955, 8787, 313, -340, -294
14680, 13892, 2948, 8836, 297, -331, -301
14690, 13929, 2980, 8827, 336, -415, -307
14700, 13872, 2996, 8797, 309, -386, -310
14710, 13860, 2977, 8838, 294, -371, -290
14720, 13859, 2959, 8872, 315, -386, -289
14730, 13850, 2961, 8875, 326, -381, -290
14740, 13883, 2976, 8846, 345, -419, -286
14750, 13906, 3007, 8815, 339, -395, -290
14760, 13903, 3023, 8808, 327, -381, -291
14770, 13895, 3001, 8838, 289, -320, -296
14780, 13880, 3005, 8876, 301, -327, -308
14790, 13885, 2982, 8894, 307, -342, -313
14800, 13875, 2992, 8883, 307, -368, -300
14810, 13881, 3006, 8865, 341, -394, -301
14820, 13893, 3014, 8845, 347, -408, -302
14830, 13866, 2991, 8845, 337, -394, -299
14840, 13867, 2995, 8851, 319, -394, -291
14850, 13880, 3002, 8841, 333, -404, -303
14860, 13912, 3006, 8836, 321, -405, -299
14870, 13905, 2998, 8836, 312, -390, -290
14880, 13902, 2988, 8845, 300, -376, -287
14890, 13897, 3001, 8840, 305, -382, -298
14900, 13864, 2988, 8848, 307, -354, -297
14910, 13867, 2989, 8862, 311, -340, -290
14920, 13869, 2983, 8877, 303, -352, -297
14930, 13861, 2993, 8906, 315, -357, -301
14940, 13859, 2986, 8909, 313, -383, -298
14950, 13871, 3000, 8907, 324, -378, -297
14960, 13852, 2989, 8892, 326, -389, -306
14970, 13859, 2985, 8904, 321, -370, -305
14980, 13864, 2974, 8901, 320, -385, -307
14990, 13865, 2979, 8914, 314, -375, -290
15000, 13848, 2982, 8901, 319, -393, -288
15010, 13860, 2967, 8896, 325, -387, -311
15020, 13859, 2987, 8905, 313, -393, -301
15030, 13876, 2968, 8894, 311, -382, -293
15040, 13870, 2964, 8918, 314, -378, -292
15050, 13855, 2973, 8925, 310, -381, -294
15060, 13865, 2983, 8883, 356, -395, -306
15070, 13854, 2998, 8882, 318, -383, -284
15080, 13853, 3006, 8895, 313, -370, -281
15090, 13839, 2974, 8917, 308, -344, -276
15100, 13827, 2972, 8941, 286, -361, -293
15110, 13859, 3004, 8945, 300, -383, -295
15120, 13867, 2992, 8926, 312, -401, -296
15130, 13863, 2993, 8880, 324, -390, -270
15140, 13832, 2981, 8882, 297, -348, -272
15150, 13843, 2992, 8920, 306, -332, -287
15160, 13845, 3008, 8932, 313, -373, -301
15170, 13870, 2979, 8958, 316, -397, -315
15180, 13887, 2975, 8986, 317, -395, -314
15190, 13861, 3012, 8983, 345, -407, -287
15200, 13856, 2987, 8985, 333, -414, -270
15210, 13847, 2946, 8974, 348, -438, -278
15220, 13792, 2974, 8929, 377, -506, -304
15230, 13781, 2974, 8882, 375, -529, -306
15240, 13817, 2975, 8892, 353, -525, -297
15250, 13887, 2960, 8979, 354, -477, -278
15260, 13877, 2956, 8981, 355, -454, -273
15270, 13877, 2981, 8958, 364, -457, -283
15280, 13821, 2998, 8964, 358, -461, -296
15290, 13815, 2997, 8946, 348, -447, -283
15300, 13836, 3002, 8951, 346, -469, -292
15310, 13817, 3007, 8963, 334, -468, -283
15320, 13855, 2992, 8948, 340, -492, -290
15330, 13867, 2996, 8893, 366, -522, -297
15340, 13880, 2995, 8842, 352, -524, -302
15350, 13862, 2971, 8866, 354, -467, -289
15360, 13852, 2961, 8873, 317, -444, -286
15370, 13870, 2943, 8862, 318, -460, -290
15380, 13861, 2917, 8846, 311, -452, -293
15390, 13839, 2907, 8925, 304, -399, -295
15400, 13849, 2919, 8972, 306, -401, -277
15410, 13849, 2954, 9010, 321, -431, -286
15420, 13874, 2998, 8949, 332, -502, -298
15430, 13853, 3001, 8893, 325, -486, -306
15440, 13837, 3008, 8901, 297, -457, -295
15450, 13835, 2972, 8968, 278, -405, -280
15460, 13857, 2980, 8976, 308, -403, -271
15470, 13855, 2984, 8942, 318, -402, -275
15480, 13803, 2977, 8897, 310, -364, -271
15490, 13796, 2968, 8938, 287, -347, -272
15500, 13784, 2968, 8965, 267, -363, -275
15510, 13796, 2947, 8951, 276, -386, -291
15520, 13868, 2953, 8968, 296, -444, -303
15530, 13871, 2942, 8955, 290, -437, -293
15540, 13881, 2933, 8947, 301, -439, -298
15550, 13837, 2919, 8918, 319, -390, -287
15560, 13835, 2900, 8930, 324, -403, -298
15570, 13823, 2902, 8924, 315, -407, -287
15580, 13830, 2930, 8941, 310, -420, -287
15590, 13841, 2953, 8915, 313, -448, -308
15600, 13847, 2961, 8911, 313, -423, -291
15610, 13846, 2966, 8912, 299, -414, -288
15620, 13846, 2972, 8957, 293, -416, -294
15630, 13849, 2971, 8978, 313, -424, -306
15640, 13848, 2971, 8974, 318, -414, -287
15650, 13853, 3004, 8995, 318, -418, -284
15660, 13802, 2932, 8989, 310, -393, -281
15670, 13804, 2929, 8992, 332, -408, -300
15680, 13848, 2947, 8969, 355, -435, -291
15690, 13857, 2957, 8974, 355, -444, -292
15700, 13879, 2953, 8938, 346, -437, -279
15710, 13867, 2921, 8935, 332, -422, -266
15720, 13860, 2906, 8951, 317, -384, -267
15730, 13844, 2910, 8964, 340, -399, -290
15740, 13849, 2935, 8970, 335, -401, -286
15750, 13842, 2968, 8928, 343, -409, -273
15760, 13866, 2962, 8909, 333, -401, -276
15770, 13870, 2959, 8928, 321, -367, -261
15780, 13832, 2957, 8984, 309, -346, -269
15790, 13817, 2930, 9023, 321, -351, -275
15800, 13806, 2934, 9023, 318, -374, -282
15810, 13820, 2945, 9018, 346, -397, -274
15820, 13814, 2945, 8976, 314, -414, -272
15830, 13831, 2965, 8956, 322, -413, -280
15840, 13814, 2976, 8976, 321, -412, -286
15850, 13831, 2993, 8948, 329, -389, -283
15860, 13812, 2940, 8967, 308, -340, -267
15870, 13791, 2938, 9009, 316, -330, -284
15880, 13756, 2933, 9045, 335, -330, -305
15890, 13822, 2914, 9037, 299, -415, -316
15900, 13857, 2915, 9034, 316, -450, -332
15910, 13814, 2921, 9035, 345, -451, -327
15920, 13803, 2923, 9031, 375, -465, -312
15930, 13808, 2911, 9004, 387, -500, -302
15940, 13798, 2902, 8975, 384, -510, -299
15950, 13763, 2912, 8889, 393, -525, -331
15960, 13780, 2914, 8924, 367, -494, -322
15970, 13828, 2924, 8979, 341, -465, -309
15980, 13862, 2908, 9052, 360, -460, -306
15990, 13839, 2907, 9016, 377, -474, -305
16000, 13803, 2910, 8983, 381, -466, -314
16010, 13780, 2937, 8993, 367, -442, -307
16020, 13801, 2985, 8993, 349, -420, -306
16030, 13823, 3013, 8982, 327, -418, -301
16040, 13830, 3030, 8984, 319, -420, -308
16050, 13832, 3055, 8970, 313, -416, -297
16060, 13818, 3036, 8986, 347, -457, -315
16070, 13801, 3015, 8953, 351, -461, -294
16080, 13823, 2998, 8957, 352, -478, -296
16090, 13818, 2964, 8936, 343, -474, -310
16100, 13827, 2940, 8931, 341, -462, -307
16110, 13831, 2927, 8943, 322, -449, -299
16120, 13816, 2886, 9026, 320, -416, -289
16130, 13860, 2902, 9073, 332, -429, -283
16140, 13866, 2917, 9035, 357, -474, -298
16150, 13845, 2933, 8951, 357, -477, -308
16160, 13796, 2940, 8935, 333, -443, -300
16170, 13801, 2934, 8984, 309, -427, -295
16180, 13833, 2957, 9035, 327, -458, -281
16190, 13861, 2949, 8999, 337, -469, -278
16200, 13829, 2939, 8957, 325, -446, -282
16210, 13767, 2927, 8970, 330, -385, -296
16220, 13757, 2928, 9004, 305, -379, -297
16230, 13803, 2924, 9048, 314, -404, -310
16240, 13799, 2923, 9069, 316, -423, -313
16250, 13813, 2937, 9039, 312, -445, -318
16260, 13826, 2939, 9013, 322, -458, -321
16270, 13805, 2954, 9038, 333, -478, -310
16280, 13772, 2963, 9007, 353, -507, -301
16290, 13775, 2974, 8996, 356, -532, -311
16300, 13788, 2964, 8998, 351, -536, -308
16310, 13817, 2978, 8986, 366, -546, -302
16320, 13839, 2986, 8978, 369, -556, -307
16330, 13845, 2968, 8959, 357, -553, -312
16340, 13847, 2978, 8984, 350, -547, -307
16350, 13839, 2959, 8945, 362, -537, -310
16360, 13835, 2956, 8952, 343, -530, -303
16370, 13818, 2958, 8966, 348, -533, -302
16380, 13826, 2955, 8969, 370, -564, -310
16390, 13829, 2939, 8983, 363, -567, -301
16400, 13842, 2942, 8982, 374, -591, -308
16410, 13821, 2945, 8959, 384, -631, -319
16420, 13832, 2942, 8965, 381, -613, -308
16430, 13829, 2941, 8947, 373, -619, -306
16440, 13839, 2926, 8969, 360, -630, -316
16450, 13842, 2941, 8964, 376, -630, -320
16460, 13835, 2966, 8964, 374, -650, -320
16470, 13862, 2958, 8956, 355, -654, -313
16480, 13855, 2964, 8955, 387, -685, -344
16490, 13876, 2977, 8954, 384, -673, -326
16500, 13875, 3004, 8863, 396, -692, -334
16510, 13903, 2977, 8850, 376, -652, -316
16520, 13908, 2978, 8845, 371, -638, -327
16530, 13892, 2967, 8894, 366, -608, -330
16540, 13878, 2972, 8879, 366, -608, -315
16550, 13863, 2977, 8875, 373, -626, -316
16560, 13865, 2971, 8835, 381, -648, -320
16570, 13883, 2990, 8831, 377, -648, -314
16580, 13884, 2979, 8879, 375, -663, -315
16590, 13900, 2978, 8887, 369, -662, -310
16600, 13904, 3007, 8859, 394, -691, -300
16610, 13894, 2979, 8795, 395, -690, -303
16620, 13878, 2994, 8812, 388, -646, -297
16630, 13884, 3013, 8849, 380, -628, -307
16640, 13941, 2964, 8838, 381, -656, -316
16650, 13921, 2995, 8839, 395, -636, -290
16660, 13922, 2997, 8849, 422, -679, -296
16670, 13900, 2995, 8840, 427, -700, -284
16680, 13869, 2999, 8746, 421, -734, -303
16690, 13864, 2992, 8758, 403, -770, -315
16700, 13915, 2961, 8782, 386, -765, -304
16710, 14004, 2919, 8836, 407, -745, -283
16720, 14034, 2942, 8771, 449, -761, -287
16730, 13981, 2988, 8697, 463, -735, -301
16740, 13970, 3011, 8655, 425, -719, -304
16750, 13963, 3023, 8729, 361, -631, -287
16760, 13946, 3042, 8730, 350, -631, -298
16770, 13929, 3049, 8721, 365, -638, -308
16780, 13976, 3024, 8717, 384, -696, -304
16790, 13987, 3046, 8656, 374, -707, -300
16800, 13974, 3014, 8640, 375, -720, -318
16810, 13995, 3007, 8616, 365, -700, -305
16820, 14010, 3016, 8634, 365, -631, -290
16830, 13997, 2992, 8645, 368, -630, -300
16840, 14032, 2976, 8630, 351, -619, -307
16850, 13989, 2984, 8705, 346, -586, -301
16860, 14045, 3007, 8692, 392, -657, -321
16870, 14032, 3026, 8627, 400, -671, -331
16880, 14017, 3032, 8580, 371, -651, -322
16890, 13977, 3005, 8672, 338, -586, -301
16900, 13985, 2952, 8685, 322, -569, -284
16910, 14017, 2956, 8693, 345, -566, -294
16920, 13998, 2963, 8665, 349, -579, -305
16930, 14007, 2983, 8648, 357, -568, -308
16940, 14008, 2995, 8629, 365, -570, -310
16950, 14042, 2997, 8619, 369, -581, -322
16960, 14049, 3003, 8620, 368, -565, -331
16970, 14056, 3007, 8634, 356, -556, -333
16980, 14038, 2987, 8625, 367, -551, -320
16990, 13992, 3018, 8605, 353, -561, -312
17000, 14045, 3023, 8606, 361, -577, -305
17010, 14048, 3025, 8567, 359, -570, -293
17020, 14034, 3049, 8557, 371, -563, -292
17030, 14037, 3045, 8561, 363, -572, -299
17040, 14040, 3022, 8561, 345, -568, -307
17050, 14055, 3041, 8563, 335, -550, -301
17060, 14053, 3010, 8584, 338, -525, -302
17070, 14057, 3009, 8577, 342, -516, -307
17080, 14050, 3004, 8582, 341, -521, -314
17090, 14061, 3017, 8587, 337, -497, -296
17100, 14051, 3025, 8584, 332, -491, -301
17110, 14034, 3032, 8583, 341, -494, -299
17120, 14069, 3016, 8577, 327, -477, -295
17130, 14057, 3012, 8589, 318, -463, -294
17140, 14059, 2999, 8577, 329, -446, -288
17150, 14052, 2999, 8570, 311, -431, -300
17160, 14051, 3015, 8569, 310, -410, -304
17170, 14074, 3012, 8566, 317, -405, -304
17180, 14058, 3004, 8601, 294, -393, -300
17190, 14057, 2988, 8605, 306, -393, -310
17200, 14057, 2995, 8594, 306, -401, -301
17210, 14046, 3007, 8577, 304, -409, -288
17220, 14037, 3027, 8587, 287, -377, -291
17230, 14046, 3005, 8593, 310, -373, -286
17240, 14014, 3004, 8584, 306, -372, -292
17250, 14029, 2995, 8638, 316, -365, -308
17260, 14020, 3004, 8633, 314, -367, -302
17270, 14038, 3029, 8616, 298, -381, -300
17280, 14063, 3025, 8581, 309, -389, -294
17290, 14027, 2991, 8593, 326, -379, -299
17300, 13983, 3034, 8588, 318, -347, -289
17310, 13985, 3036, 8609, 316, -350, -301
17320, 14104, 3021, 8617, 293, -358, -297
17330, 14075, 3014, 8624, 285, -336, -295
17340, 14035, 3009, 8639, 284, -315, -294
17350, 14023, 2984, 8664, 299, -292, -283
17360, 14014, 2981, 8670, 326, -318, -298
17370, 14011, 2998, 8642, 320, -334, -295
17380, 13982, 2973, 8632, 341, -372, -300
17390, 13988, 2973, 8622, 324, -371, -309
17400, 14026, 2984, 8641, 313, -375, -301
17410, 14060, 2964, 8683, 339, -366, -293
17420, 14057, 2974, 8660, 331, -358, -307
17430, 14025, 2993, 8641, 332, -336, -293
17440, 14002, 3005, 8624, 322, -312, -274
17450, 13962, 3030, 8676, 263, -256, -283
17460, 13983, 3037, 8695, 262, -254, -277
17470, 13972, 3041, 8706, 269, -276, -284
17480, 13969, 3029, 8678, 298, -317, -292
17490, 13980, 3025, 8661, 326, -334, -299
17500, 14001, 3006, 8649, 297, -331, -285
17510, 13973, 3007, 8644, 318, -309, -296
17520, 13989, 2984, 8643, 296, -296, -287
17530, 13983, 2970, 8643, 293, -299, -299
17540, 13973, 2957, 8739, 283, -277, -291
17550, 13989, 2963, 8780, 286, -267, -292
17560, 14001, 2954, 8796, 310, -314, -290
17570, 14004, 2977, 8766, 326, -367, -302
17580, 13982, 3002, 8659, 318, -382, -294
17590, 13954, 2988, 8690, 304, -347, -284
17600, 13935, 2961, 8750, 287, -327, -291
17610, 13978, 3008, 8725, 321, -360, -295
17620, 13974, 3005, 8720, 308, -334, -288
17630, 13975, 2990, 8739, 297, -318, -285
17640, 13974, 2996, 8767, 292, -298, -309
17650, 13964, 2995, 8761, 310, -307, -311
17660, 13964, 2987, 8777, 310, -304, -314
17670, 13952, 2967, 8754, 303, -308, -287
17680, 13953, 2989, 8758, 326, -320, -301
17690, 13930, 2984, 8759, 328, -322, -295
17700, 13911, 2996, 8776, 310, -333, -279
17710, 13949, 2999, 8761, 298, -353, -287
17720, 13944, 2994, 8766, 301, -360, -284
17730, 13979, 2984, 8756, 306, -359, -290
17740, 13951, 2989, 8755, 313, -354, -297
17750, 13940, 2977, 8757, 298, -330, -304
17760, 13930, 2985, 8769, 321, -318, -308
17770, 13912, 2987, 8798, 309, -306, -296
17780, 13912, 2968, 8826, 281, -313, -284
17790, 13921, 2973, 8839, 286, -335, -289
17800, 13925, 2982, 8833, 290, -343, -296
17810, 13934, 2965, 8828, 304, -342, -297
17820, 13915, 2970, 8795, 314, -327, -280
17830, 13904, 2950, 8799, 319, -340, -300
17840, 13912, 2954, 8813, 310, -325, -293
17850, 13915, 2971, 8841, 305, -325, -293
17860, 13931, 2966, 8841, 306, -331, -297
17870, 13930, 2954, 8828, 305, -346, -304
17880, 13932, 2949, 8844, 317, -326, -301
17890, 13915, 2952, 8862, 311, -325, -290
17900, 13917, 2971, 8836, 332, -341, -296
17910, 13911, 2986, 8833, 340, -339, -297
17920, 13897, 2975, 8848, 321, -330, -289
17930, 13884, 2955, 8854, 317, -325, -286
17940, 13872, 2979, 8878, 310, -335, -277
17950, 13895, 2980, 8879, 331, -364, -298
17960, 13923, 2982, 8857, 315, -381, -281
17970, 13932, 2982, 8793, 319, -363, -274
17980, 13891, 2979, 8824, 330, -319, -284
17990, 13876, 2976, 8879, 323, -296, -295
18000, 13880, 2992, 8892, 330, -309, -313
18010, 13914, 2944, 8913, 296, -352, -311
18020, 13899, 2946, 8934, 292, -355, -312
18030, 13878, 2952, 8943, 321, -387, -319
18040, 13866, 2946, 8925, 355, -444, -292
18050, 13871, 2929, 8920, 381, -460, -296
18060, 13850, 2937, 8836, 380, -470, -285
18070, 13832, 2952, 8811, 376, -468, -284
18080, 13866, 2957, 8859, 337, -419, -286
18090, 13890, 2948, 8924, 334, -403, -281
18100, 13911, 2915, 8928, 358, -406, -286
18110, 13888, 2948, 8914, 360, -394, -287
18120, 13868, 2959, 8879, 359, -375, -289
18130, 13858, 2976, 8894, 324, -342, -280
18140, 13867, 2984, 8894, 299, -339, -277
18150, 13880, 2995, 8894, 294, -353, -289
18160, 13871, 2983, 8898, 307, -352, -291
18170, 13840, 2994, 8884, 325, -390, -299
18180, 13843, 2979, 8862, 349, -406, -288
18190, 13865, 2970, 8851, 334, -435, -286
18200, 13874, 2969, 8871, 319, -435, -293
18210, 13881, 2954, 8861, 332, -430, -296
18220, 13881, 2958, 8853, 345, -420, -301
18230, 13870, 2937, 8898, 345, -388, -284
18240, 13855, 2932, 8990, 317, -356, -266
18250, 13883, 2921, 8988, 349, -411, -288
18260, 13867, 2947, 8918, 373, -481, -311
18270, 13857, 2955, 8868, 360, -500, -304
18280, 13850, 2955, 8897, 340, -487, -307
18290, 13839, 2939, 8920, 341, -444, -306
18300, 13857, 2951, 8947, 343, -450, -300
18310, 13859, 2929, 8909, 353, -451, -286
18320, 13834, 2927, 8900, 356, -437, -284
18330, 13829, 2948, 8911, 343, -422, -284
18340, 13846, 2954, 8926, 341, -418, -290
18350, 13883, 2951, 8939, 340, -436, -304
18360, 13879, 2957, 8947, 360, -452, -316
18370, 13886, 2977, 8929, 335, -452, -302
18380, 13873, 2973, 8896, 355, -463, -305
18390, 13872, 2971, 8885, 349, -453, -290
18400, 13841, 2962, 8877, 350, -440, -295
18410, 13846, 2982, 8895, 327, -438, -292
18420, 13851, 2977, 8889, 340, -445, -294
18430, 13878, 2973, 8867, 339, -453, -298
18440, 13866, 2961, 8898, 326, -431, -289
18450, 13887, 2968, 8900, 322, -430, -296
18460, 13858, 2955, 8857, 332, -418, -297
18470, 13873, 2957, 8910, 332, -402, -290
18480, 13865, 2965, 8925, 320, -400, -291
18490, 13872, 2957, 8923, 319, -405, -289
18500, 13853, 2942, 8942, 333, -412, -288
18510, 13855, 2933, 8939, 324, -415, -286
18520, 13848, 2933, 8943, 343, -431, -309
18530, 13842, 2938, 8938, 344, -434, -306
18540, 13851, 2952, 8937, 307, -412, -294
18550, 13857, 2923, 8951, 320, -421, -300
18560, 13856, 2945, 8943, 317, -429, -308
18570, 13854, 2938, 8933, 336, -465, -292
18580, 13856, 2948, 8939, 319, -425, -294
18590, 13856, 2957, 8927, 301, -429, -303
18600, 13858, 2963, 8949, 316, -429, -296
18610, 13862, 2955, 8937, 320, -436, -307
18620, 13854, 2961, 8931, 310, -453, -312
18630, 13849, 2958, 8933, 332, -452, -307
18640, 13876, 2956, 8955, 327, -462, -303
18650, 13847, 2969, 8934, 333, -470, -296
18660, 13849, 2965, 8907, 335, -488, -318
18670, 13849, 2966, 8897, 327, -478, -303
18680, 13840, 2941, 8910, 329, -475, -293
18690, 13866, 2959, 8941, 306, -463, -299
18700, 13874, 2971, 8939, 324, -473, -307
18710, 13895, 2964, 8911, 332, -483, -299
18720, 13841, 2940, 8887, 321, -435, -275
18730, 13801, 2922, 8957, 324, -419, -285
18740, 13798, 2930, 8995, 333, -454, -317
18750, 13899, 2927, 8951, 339, -519, -327
18760, 13906, 2938, 8944, 335, -570, -345
18770, 13870, 2962, 8939, 319, -530, -318
18780, 13861, 2956, 8959, 350, -526, -328
18790, 13872, 2925, 8971, 392, -590, -322
18800, 13835, 2906, 8924, 398, -608, -301
18810, 13800, 2912, 8847, 408, -639, -314
18820, 13830, 2957, 8856, 384, -632, -320
18830, 13890, 2951, 8950, 358, -605, -314
18840, 13922, 2933, 8949, 377, -597, -295
18850, 13900, 2931, 8882, 400, -594, -299
18860, 13868, 2951, 8858, 385, -569, -306
18870, 13864, 2953, 8862, 373, -553, -315
18880, 13880, 2995, 8881, 324, -543, -293
18890, 13862, 3017, 8881, 334, -569, -294
18900, 13889, 3013, 8910, 341, -593, -300
18910, 13899, 3020, 8885, 379, -645, -313
18920, 13887, 3001, 8832, 391, -663, -312
18930, 13917, 2987, 8805, 400, -668, -309
18940, 13902, 2989, 8776, 378, -649, -306
18950, 13921, 2959, 8799, 339, -582, -304
18960, 13915, 2951, 8792, 362, -572, -308
18970, 13923, 2941, 8796, 358, -567, -320
18980, 13918, 2920, 8861, 341, -545, -291
18990, 13932, 2920, 8891, 338, -552, -305
19000, 13919, 2932, 8865, 382, -608, -314
19010, 13911, 2969, 8807, 399, -638, -316
19020, 13889, 2970, 8786, 366, -633, -316
19030, 13873, 2963, 8805, 357, -626, -312
19040, 13893, 2946, 8836, 349, -637, -303
19050, 13929, 2933, 8836, 384, -651, -291
19060, 13909, 2932, 8792, 393, -657, -304
19070, 13908, 2965, 8761, 383, -614, -316
19080, 13910, 2972, 8787, 340, -593, -313
19090, 13933, 2974, 8809, 354, -602, -325
19100, 13961, 3009, 8786, 397, -650, -333
19110, 13964, 3006, 8771, 386, -647, -330
19120, 13954, 2999, 8764, 389, -640, -322
19130, 13934, 2989, 8717, 394, -646, -319
19140, 13941, 2999, 8725, 393, -668, -313
19150, 13966, 3002, 8725, 381, -669, -319
19160, 13974, 3007, 8721, 384, -667, -316
19170, 13975, 2996, 8697, 394, -669, -312
19180, 13976, 2995, 8688, 378, -651, -300
19190, 13994, 2996, 8675, 378, -649, -301
19200, 14011, 2976, 8683, 374, -646, -299
19210, 13994, 2976, 8689, 380, -621, -326
19220, 14000, 2967, 8687, 358, -594, -308
19230, 13973, 2972, 8708, 357, -601, -313
19240, 13958, 2991, 8729, 368, -620, -317
19250, 13976, 2985, 8734, 357, -618, -297
19260, 13985, 2994, 8722, 377, -639, -312
19270, 13976, 2981, 8710, 377, -689, -315
19280, 14020, 2965, 8693, 374, -692, -312
19290, 14006, 2975, 8683, 395, -680, -318
19300, 13992, 2992, 8674, 399, -676, -314
19310, 14038, 2978, 8664, 374, -690, -323
19320, 14011, 2982, 8629, 359, -666, -316
19330, 14018, 3008, 8632, 379, -662, -318
19340, 14017, 3000, 8635, 356, -650, -306
19350, 14036, 2997, 8628, 362, -670, -316
19360, 14026, 2989, 8629, 378, -663, -314
19370, 14040, 2996, 8626, 383, -656, -305
19380, 14027, 3019, 8605, 382, -667, -326
19390, 14061, 3009, 8593, 385, -690, -320
19400, 14057, 3006, 8578, 380, -682, -320
19410, 14049, 3012, 8556, 386, -665, -312
19420, 14056, 3002, 8585, 388, -665, -305
19430, 14065, 3005, 8590, 405, -692, -301
19440, 14080, 2999, 8555, 396, -682, -299
19450, 14052, 3026, 8544, 393, -661, -297
19460, 14068, 3013, 8537, 392, -643, -291
19470, 14057, 2999, 8571, 360, -648, -297
19480, 14086, 2995, 8571, 358, -654, -301
19490, 14080, 3016, 8570, 370, -689, -310
19500, 14106, 3011, 8484, 386, -694, -284
19510, 14090, 3010, 8467, 382, -665, -303
19520, 14056, 3030, 8516, 361, -643, -309
19530, 14080, 3033, 8508, 355, -622, -302
19540, 14112, 2997, 8512, 370, -626, -287
19550, 14119, 2985, 8556, 367, -631, -283
19560, 14074, 2994, 8511, 396, -617, -316
19570, 14065, 2998, 8499, 386, -623, -312
19580, 14087, 3004, 8446, 389, -667, -312
19590, 14171, 2996, 8481, 355, -648, -285
19600, 14204, 2975, 8456, 395, -624, -288
19610, 14181, 2994, 8465, 403, -600, -300
19620, 14120, 3034, 8429, 393, -542, -294
19630, 14097, 3053, 8407, 385, -530, -296
19640, 14067, 3051, 8402, 346, -502, -279
19650, 14092, 3077, 8417, 319, -482, -285
19660, 14140, 3065, 8419, 324, -454, -308
19670, 14149, 3053, 8382, 320, -418, -305
19680, 14158, 3053, 8350, 305, -394, -309
19690, 14138, 3039, 8359, 292, -349, -301
19700, 14136, 3034, 8375, 283, -303, -300
19710, 14125, 2994, 8437, 280, -269, -299
19720, 14115, 2960, 8467, 263, -274, -302
19730, 14096, 2960, 8505, 273, -289, -299
19740, 14106, 2975, 8571, 293, -328, -294
19750, 14147, 3006, 8562, 320, -375, -309
19760, 14145, 3013, 8538, 314, -414, -305
19770, 14077, 3024, 8446, 317, -394, -297
19780, 14067, 2983, 8492, 301, -370, -295
19790, 14060, 2981, 8533, 289, -351, -285
19800, 14082, 2988, 8562, 333, -378, -305
19810, 14110, 3006, 8527, 319, -371, -294
19820, 14110, 3035, 8488, 326, -363, -297
19830, 14096, 3036, 8463, 299, -307, -295
19840, 14084, 3013, 8507, 271, -300, -305
19850, 14089, 3012, 8540, 280, -312, -321
19860, 14099, 3019, 8567, 301, -300, -325
19870, 14091, 3004, 8513, 305, -332, -308
19880, 14092, 2999, 8512, 312, -344, -298
19890, 14073, 3014, 8480, 313, -342, -296
19900, 14079, 3019, 8514, 317, -328, -291
19910, 14069, 3017, 8514, 289, -322, -287
19920, 14067, 3010, 8536, 297, -319, -290
19930, 14075, 3021, 8527, 297, -313, -300
19940, 14092, 3014, 8538, 284, -308, -281
19950, 14085, 3013, 8558, 274, -303, -288
19960, 14057, 3010, 8549, 292, -306, -295
19970, 14057, 2988, 8565, 278, -292, -295
19980, 14055, 2994, 8593, 294, -299, -291
19990, 14035, 2981, 8574, 295, -305, -296
20000, 14046, 2991, 8616, 307, -310, -300
20010, 14043, 2978, 8624, 288, -307, -290
20020, 14045, 2983, 8603, 311, -330, -302
20030, 14059, 2986, 8608, 315, -325, -296
20040, 14042, 2976, 8600, 294, -311, -296
20050, 14039, 2974, 8606, 305, -313, -292
20060, 14037, 2989, 8591, 279, -300, -291
20070, 14061, 2990, 8609, 273, -300, -279
20080, 14053, 2977, 8594, 285, -301, -293
20090, 14045, 2979, 8629, 308, -319, -300
20100, 14032, 2982, 8643, 286, -315, -289
20110, 14043, 2986, 8636, 288, -318, -287
20120, 14014, 3004, 8633, 296, -341, -292
20130, 14015, 3009, 8632, 301, -332, -282
20140, 14024, 3002, 8619, 302, -319, -277
20150, 14001, 3011, 8618, 305, -311, -286
20160, 14020, 2989, 8641, 289, -298, -286
20170, 14052, 3006, 8634, 298, -296, -294
20180, 14058, 3007, 8598, 299, -291, -283
20190, 14017, 2999, 8587, 293, -256, -273
20200, 14003, 3000, 8624, 283, -220, -283
20210, 13993, 2989, 8661, 278, -209, -294
20220, 13967, 2980, 8690, 277, -216, -295
20230, 14051, 2955, 8715, 299, -277, -308
20240, 14023, 2962, 8717, 306, -287, -306
20250, 14000, 2976, 8702, 301, -265, -281
20260, 13982, 2978, 8720, 318, -276, -283
20270, 13977, 2951, 8738, 324, -303, -279
20280, 13958, 2957, 8742, 337, -323, -294
20290, 13928, 2962, 8670, 335, -361, -308
20300, 13961, 2974, 8674, 335, -353, -302
20310, 14015, 2960, 8727, 308, -310, -281
20320, 14003, 2944, 8750, 327, -289, -283
20330, 13995, 2950, 8733, 325, -275, -276
20340, 13964, 2965, 8721, 311, -256, -258
20350, 13954, 2981, 8723, 301, -249, -267
20360, 13943, 3009, 8747, 277, -259, -283
20370, 13940, 3018, 8761, 278, -261, -280
20380, 13939, 3010, 8756, 303, -276, -292
20390, 13956, 3005, 8759, 315, -287, -282
20400, 13957, 2996, 8723, 334, -313, -287
20410, 13957, 2980, 8707, 320, -341, -281
20420, 13973, 2956, 8712, 319, -315, -287
20430, 13956, 2953, 8737, 314, -312, -288
20440, 13961, 2928, 8745, 304, -301, -285
20450, 13931, 2904, 8800, 301, -293, -281
20460, 13932, 2918, 8861, 307, -295, -280
20470, 13945, 2937, 8851, 312, -336, -283
20480, 13962, 2950, 8835, 340, -399, -305
20490, 13925, 2972, 8744, 340, -423, -302
20500, 13915, 2953, 8770, 311, -391, -291
20510, 13926, 2955, 8819, 311, -388, -290
20520, 13909, 2964, 8838, 330, -395, -290
20530, 13896, 2961, 8784, 321, -366, -297
20540, 13907, 2955, 8836, 315, -358, -303
20550, 13923, 2967, 8853, 329, -390, -303
20560, 13948, 2966, 8828, 321, -411, -320
20570, 13948, 2963, 8828, 338, -427, -298
20580, 13950, 2971, 8809, 340, -418, -296
20590, 13906, 2964, 8808, 318, -393, -279
20600, 13893, 2970, 8789, 322, -402, -284
20610, 13910, 2980, 8782, 328, -410, -274
20620, 13934, 2960, 8799, 329, -425, -277
20630, 13934, 2953, 8794, 326, -428, -279
20640, 13958, 2944, 8800, 342, -439, -289
20650, 13933, 2952, 8765, 340, -428, -288
20660, 13925, 2960, 8796, 330, -424, -284
20670, 13914, 2963, 8802, 345, -430, -290
20680, 13910, 2962, 8802, 321, -416, -283
20690, 13909, 2955, 8821, 318, -418, -294
20700, 13936, 2952, 8854, 322, -415, -300
20710, 13934, 2932, 8856, 324, -404, -289
20720, 13915, 2948, 8873, 317, -399, -286
20730, 13901, 2950, 8843, 335, -419, -292
20740, 13905, 2927, 8847, 327, -411, -290
20750, 13916, 2945, 8846, 345, -428, -290
20760, 13902, 2942, 8835, 329, -427, -295
20770, 13912, 2946, 8838, 337, -453, -301
20780, 13926, 2945, 8800, 332, -454, -302
20790, 13932, 2935, 8812, 331, -424, -275
20800, 13919, 2956, 8811, 314, -411, -286
20810, 13923, 2944, 8818, 316, -404, -296
20820, 13920, 2964, 8824, 330, -389, -276
20830, 13924, 2954, 8840, 339, -404, -293
20840, 13926, 2949, 8831, 324, -397, -300
20850, 13924, 2944, 8846, 330, -415, -297
20860, 13923, 2951, 8839, 313, -408, -289
20870, 13928, 2948, 8846, 318, -409, -278
20880, 13918, 2955, 8836, 322, -407, -287
20890, 13891, 2970, 8826, 343, -434, -297
20900, 13893, 2984, 8830, 317, -413, -279
20910, 13898, 2970, 8835, 331, -419, -284
20920, 13920, 2961, 8835, 321, -436, -284
20930, 13948, 2962, 8815, 313, -428, -264
20940, 13950, 2949, 8786, 332, -425, -264
20950, 13900, 2927, 8771, 326, -389, -268
20960, 13853, 2935, 8877, 294, -329, -270
20970, 13881, 2938, 8889, 301, -358, -287
20980, 13918, 2928, 8868, 308, -418, -317
20990, 13940, 2903, 8895, 295, -424, -306
21000, 13925, 2942, 8903, 317, -407, -302
21010, 13901, 2943, 8900, 343, -447, -310
21020, 13890, 2905, 8861, 353, -480, -284
21030, 13872, 2900, 8831, 372, -497, -288
21040, 13836, 2931, 8794, 365, -518, -297
21050, 13913, 2967, 8827, 345, -478, -305
21060, 13942, 2929, 8898, 321, -436, -286
21070, 13937, 2912, 8915, 327, -434, -292
21080, 13888, 2924, 8865, 344, -435, -305
21090, 13872, 2950, 8836, 371, -433, -300
21100, 13868, 2968, 8845, 330, -424, -293
21110, 13885, 3005, 8859, 301, -427, -305
21120, 13893, 3000, 8873, 325, -471, -316
21130, 13881, 3002, 8877, 330, -480, -298
21140, 13866, 2988, 8873, 325, -499, -299
21150, 13894, 2967, 8840, 328, -522, -296
21160, 13886, 2953, 8789, 361, -558, -312
21170, 13907, 2961, 8802, 342, -533, -301
21180, 13907, 2936, 8811, 329, -527, -306
21190, 13921, 2929, 8835, 337, -543, -318
21200, 13903, 2919, 8838, 331, -538, -314
21210, 13903, 2901, 8859, 326, -524, -305
21220, 13911, 2893, 8915, 335, -524, -298
21230, 13937, 2912, 8885, 378, -613, -318
21240, 13930, 2928, 8834, 383, -649, -315
21250, 13911, 2924, 8776, 361, -638, -324
21260, 13902, 2959, 8815, 336, -597, -324
21270, 13928, 2945, 8842, 342, -593, -313
21280, 13924, 2912, 8803, 344, -586, -311
21290, 13910, 2924, 8768, 369, -584, -304
21300, 13898, 2941, 8758, 379, -565, -312
21310, 13905, 2958, 8754, 352, -555, -319
21320, 13945, 2965, 8792, 372, -603, -329
21330, 13964, 2945, 8801, 380, -605, -333
21340, 13966, 2960, 8782, 358, -602, -312
21350, 13950, 2976, 8769, 372, -612, -316
21360, 13948, 2988, 8758, 371, -588, -318
21370, 13929, 2984, 8779, 371, -590, -306
21380, 13919, 2981, 8765, 386, -604, -311
21390, 13923, 2984, 8744, 386, -636, -322
21400, 13915, 2967, 8746, 377, -638, -311
21410, 13948, 2982, 8721, 369, -628, -305
21420, 13973, 2964, 8713, 361, -610, -313
21430, 13991, 2973, 8735, 372, -605, -311
21440, 13972, 2964, 8726, 380, -617, -312
21450, 13995, 2974, 8722, 374, -598, -312
21460, 13973, 2958, 8738, 371, -603, -297
21470, 13961, 2961, 8742, 361, -598, -296
21480, 13951, 2937, 8728, 364, -629, -315
21490, 13974, 2949, 8732, 376, -663, -317
21500, 14007, 2970, 8699, 384, -645, -311
21510, 13991, 2974, 8691, 386, -629, -304
21520, 13992, 2962, 8677, 349, -616, -299
21530, 14010, 2956, 8662, 349, -609, -303
21540, 14008, 2984, 8656, 374, -630, -313
21550, 14014, 2984, 8651, 365, -623, -315
21560, 14008, 2979, 8659, 357, -614, -306
21570, 14008, 2991, 8665, 374, -614, -312
21580, 14003, 2986, 8650, 360, -653, -309
21590, 14008, 2975, 8639, 369, -651, -305
21600, 14034, 2979, 8622, 387, -670, -318
21610, 14020, 2977, 8620, 386, -665, -321
21620, 14034, 2989, 8613, 389, -672, -318
21630, 14030, 2981, 8602, 389, -664, -319
21640, 14065, 2983, 8590, 384, -666, -311
21650, 14063, 2993, 8594, 391, -648, -319
21660, 14059, 2978, 8605, 380, -638, -317
21670, 14050, 2999, 8597, 382, -634, -313
21680, 14045, 3003, 8572, 386, -627, -304
21690, 14028, 2999, 8566, 372, -627, -302
21700, 14030, 2998, 8552, 366, -625, -304
21710, 14015, 2994, 8616, 359, -615, -295
21720, 14064, 2974, 8620, 371, -648, -310
21730, 14072, 3011, 8567, 398, -680, -324
21740, 14078, 2980, 8526, 381, -699, -299
21750, 14066, 2994, 8505, 384, -641, -316
21760, 14028, 3020, 8552, 359, -604, -323
21770, 14101, 3012, 8564, 375, -644, -320
21780, 14113, 3007, 8554, 367, -664, -307
21790, 14076, 3006, 8551, 357, -668, -300
21800, 14089, 2988, 8507, 415, -645, -294
21810, 14094, 3005, 8507, 438, -646, -301
21820, 14073, 2989, 8533, 393, -619, -297
21830, 14052, 2975, 8528, 401, -656, -303
21840, 14057, 2981, 8448, 405, -744, -316
21850, 14150, 2982, 8458, 413, -744, -313
21860, 14176, 2952, 8457, 417, -701, -316
21870, 14188, 2968, 8490, 419, -674, -289
21880, 14144, 2983, 8451, 413, -639, -287
21890, 14112, 3013, 8452, 418, -598, -288
21900, 14093, 3043, 8439, 414, -580, -285
21910, 14083, 3065, 8475, 341, -567, -297
21920, 14096, 3034, 8469, 361, -574, -311
21930, 14109, 3049, 8430, 358, -580, -297
21940, 14129, 3045, 8378, 362, -587, -298
21950, 14145, 3027, 8403, 350, -597, -315
21960, 14154, 3004, 8372, 333, -563, -293
21970, 14160, 3014, 8367, 343, -527, -296
21980, 14132, 2993, 8406, 325, -492, -321
21990, 14154, 2997, 8403, 311, -469, -312
22000, 14113, 2975, 8475, 313, -466, -310
22010, 14133, 2991, 8470, 350, -484, -309
22020, 14170, 3022, 8465, 359, -503, -315
22030, 14197, 3026, 8417, 359, -508, -303
22040, 14126, 3024, 8355, 324, -438, -303
22050, 14123, 2995, 8381, 296, -388, -291
22060, 14095, 2979, 8473, 285, -365, -287
22070, 14130, 2980, 8476, 315, -377, -286
22080, 14147, 2987, 8434, 334, -395, -310
22090, 14146, 3036, 8395, 330, -386, -318
22100, 14126, 3025, 8401, 316, -364, -315
22110, 14134, 3003, 8438, 285, -327, -304
22120, 14138, 3011, 8463, 290, -341, -312
22130, 14112, 3013, 8479, 295, -350, -324
22140, 14128, 3017, 8486, 302, -337, -313
22150, 14119, 3015, 8471, 298, -332, -298
22160, 14116, 3012, 8469, 309, -351, -305
22170, 14112, 3015, 8463, 303, -348, -294
22180, 14085, 3004, 8463, 311, -352, -297
22190, 14099, 3010, 8467, 299, -346, -285
22200, 14092, 3005, 8454, 304, -352, -302
22210, 14119, 3021, 8477, 291, -343, -300
22220, 14106, 3026, 8477, 301, -337, -301
22230, 14107, 3012, 8485, 310, -327, -301
22240, 14077, 3022, 8495, 284, -303, -290
22250, 14068, 3015, 8517, 296, -333, -309
22260, 14079, 3021, 8520, 300, -352, -310
22270, 14090, 3018, 8503, 308, -367, -305
22280, 14105, 2990, 8522, 309, -356, -305
22290, 14110, 2994, 8529, 306, -356, -298
22300, 14081, 2986, 8534, 309, -356, -304
22310, 14082, 2985, 8505, 295, -332, -289
22320, 14077, 2988, 8500, 306, -349, -297
22330, 14105, 3010, 8512, 303, -341, -285
22340, 14083, 2996, 8504, 287, -338, -289
22350, 14075, 3000, 8531, 282, -337, -298
22360, 14101, 2990, 8533, 285, -333, -291
22370, 14086, 2991, 8539, 301, -322, -293
22380, 14077, 2981, 8532, 290, -325, -298
22390, 14068, 2982, 8555, 301, -326, -293
22400, 14046, 2985, 8558, 303, -328, -305
22410, 14051, 2995, 8558, 301, -360, -297
22420, 14066, 2983, 8569, 280, -357, -282
22430, 14049, 3015, 8563, 301, -372, -289
22440, 14059, 3004, 8578, 287, -360, -294
22450, 14055, 3012, 8592, 312, -367, -297
22460, 14080, 2992, 8583, 310, -364, -292
22470, 14076, 3004, 8548, 299, -371, -289
22480, 14040, 3026, 8559, 305, -343, -306
22490, 14120, 2978, 8585, 294, -369, -313
22500, 14123, 2970, 8569, 298, -347, -309
22510, 14069, 2980, 8592, 322, -317, -296
22520, 14059, 2967, 8608, 309, -302, -279
22530, 14019, 2966, 8612, 320, -319, -282
22540, 14000, 2956, 8601, 327, -355, -287
22550, 13985, 2979, 8566, 332, -398, -302
22560, 14013, 2993, 8571, 334, -410, -307
22570, 14049, 2996, 8641, 321, -392, -292
22580, 14072, 2963, 8660, 334, -367, -283
22590, 14087, 2970, 8628, 341, -372, -294
22600, 14056, 2978, 8592, 337, -348, -290
22610, 14024, 2997, 8602, 312, -295, -278
22620, 14021, 3013, 8598, 297, -272, -271
22630, 14000, 3012, 8612, 303, -288, -294
22640, 13996, 3012, 8650, 289, -288, -287
22650, 14005, 3014, 8617, 273, -310, -285
22660, 14010, 2995, 8608, 293, -337, -289
22670, 14023, 3015, 8591, 309, -363, -286
22680, 14040, 3004, 8595, 308, -350, -300
22690, 14034, 2982, 8597, 290, -318, -289
22700, 14036, 2964, 8622, 284, -317, -285
22710, 13994, 2945, 8663, 277, -296, -276
22720, 13989, 2928, 8727, 308, -284, -292
22730, 14009, 2951, 8757, 313, -317, -303
22740, 14032, 2966, 8690, 300, -394, -295
22750, 13994, 2985, 8652, 341, -425, -313
22760, 13986, 2993, 8632, 331, -417, -317
22770, 13969, 2962, 8700, 297, -376, -295
22780, 13998, 2962, 8716, 292, -381, -292
22790, 14017, 2965, 8699, 325, -404, -290
22800, 14015, 2970, 8682, 354, -414, -289
22810, 13988, 2977, 8636, 327, -370, -290
22820, 13969, 2999, 8643, 319, -356, -305
22830, 13975, 3003, 8671, 302, -346, -303
22840, 14006, 2985, 8688, 306, -351, -307
22850, 14010, 2984, 8692, 285, -333, -305
22860, 14017, 2967, 8695, 307, -340, -310
22870, 13993, 2959, 8687, 306, -322, -281
22880, 13982, 2965, 8689, 330, -362, -293
22890, 13971, 2968, 8671, 324, -365, -287
22900, 13977, 2977, 8695, 318, -364, -297
22910, 14002, 2968, 8698, 315, -389, -297
22920, 14013, 2975, 8692, 293, -379, -286
22930, 13999, 2975, 8676, 289, -372, -282
22940, 13984, 2987, 8696, 313, -370, -297
22950, 13987, 2973, 8696, 303, -354, -291
22960, 13964, 2977, 8679, 308, -347, -291
22970, 13960, 2960, 8736, 322, -334, -294
22980, 13966, 2960, 8742, 305, -342, -303
22990, 13958, 2964, 8761, 311, -353, -300
23000, 13973, 2959, 8753, 305, -369, -290
23010, 13963, 2958, 8744, 312, -376, -290
23020, 13954, 2955, 8740, 310, -382, -293
23030, 13968, 2971, 8740, 310, -383, -299
23040, 13969, 2957, 8741, 319, -392, -287
23050, 13985, 2965, 8731, 311, -379, -278
23060, 13962, 2943, 8737, 308, -385, -290
23070, 13971, 2943, 8747, 315, -383, -290
23080, 13957, 2951, 8742, 316, -390, -282
23090, 13955, 2947, 8747, 324, -397, -283
23100, 13977, 2953, 8744, 319, -386, -285
23110, 13959, 2955, 8742, 338, -400, -303
23120, 13967, 2952, 8753, 324, -399, -298
23130, 13963, 2963, 8757, 328, -403, -305
23140, 13965, 2950, 8742, 316, -405, -307
23150, 13968, 2966, 8753, 303, -392, -298
23160, 13956, 2972, 8742, 331, -410, -304
23170, 13953, 2966, 8742, 344, -424, -290
23180, 13964, 2966, 8756, 366, -445, -306
23190, 13940, 2961, 8764, 325, -425, -287
23200, 13949, 2945, 8751, 305, -410, -282
23210, 13955, 2954, 8790, 314, -423, -285
23220, 13967, 2972, 8750, 339, -448, -298
23230, 13982, 2955, 8713, 348, -435, -263
23240, 13947, 2944, 8700, 356, -415, -275
23250, 13937, 2953, 8733, 329, -359, -274
23260, 13912, 2966, 8783, 315, -344, -280
23270, 13971, 2930, 8808, 321, -418, -326
23280, 13990, 2937, 8809, 309, -434, -322
23290, 13979, 2946, 8804, 326, -435, -303
23300, 13973, 2948, 8776, 359, -478, -292
23310, 13966, 2947, 8769, 359, -500, -288
23320, 13934, 2922, 8783, 378, -491, -292
23330, 13903, 2932, 8702, 386, -499, -293
23340, 13929, 2954, 8699, 348, -493, -286
23350, 13988, 2950, 8784, 329, -449, -268
23360, 14038, 2938, 8791, 320, -429, -276
23370, 13968, 2934, 8765, 346, -430, -289
23380, 13957, 2961, 8746, 361, -444, -292
23390, 13943, 2969, 8728, 337, -417, -293
23400, 13937, 2973, 8759, 315, -387, -288
23410, 13939, 2993, 8774, 307, -398, -275
23420, 13938, 2982, 8756, 305, -406, -286
23430, 13953, 2989, 8755, 305, -402, -288
23440, 13949, 2987, 8728, 321, -424, -281
23450, 13953, 2946, 8732, 322, -429, -286
23460, 13954, 2935, 8735, 349, -425, -300
23470, 13967, 2913, 8757, 306, -395, -290
23480, 13918, 2891, 8816, 329, -391, -300
23490, 13962, 2904, 8850, 343, -453, -313
23500, 13965, 2922, 8813, 352, -495, -312
23510, 13961, 2935, 8735, 346, -508, -311
23520, 13916, 2942, 8747, 345, -496, -319
23530, 13914, 2942, 8789, 308, -460, -294
23540, 13941, 2951, 8817, 327, -476, -292
23550, 13995, 2948, 8794, 336, -489, -286
23560, 13934, 2947, 8722, 342, -454, -284
23570, 13926, 2945, 8737, 347, -434, -297
23580, 13935, 2950, 8730, 327, -419, -300
23590, 13951, 2962, 8779, 308, -413, -306
23600, 13945, 2957, 8780, 295, -414, -309
23610, 13968, 2965, 8795, 305, -416, -313
23620, 13972, 2965, 8783, 323, -434, -308
23630, 13957, 2965, 8801, 346, -447, -292
23640, 13908, 2959, 8812, 362, -472, -300
23650, 13904, 2954, 8770, 366, -484, -292
23660, 13920, 2961, 8744, 355, -512, -296
23670, 13956, 2946, 8762, 347, -524, -308
23680, 13976, 2956, 8742, 329, -528, -303
23690, 13979, 2968, 8750, 327, -505, -311
23700, 13963, 2955, 8741, 330, -501, -311
23710, 13955, 2959, 8767, 336, -493, -303
23720, 13921, 2935, 8798, 324, -480, -292
23730, 13922, 2946, 8792, 341, -511, -295
23740, 13915, 2949, 8783, 351, -552, -298
23750, 13960, 2936, 8768, 356, -585, -299
23760, 13963, 2946, 8759, 354, -572, -300
23770, 13961, 2954, 8771, 348, -565, -301
23780, 13945, 2939, 8740, 366, -585, -312
23790, 13974, 2958, 8736, 364, -568, -311
23800, 13949, 2949, 8739, 354, -584, -313
23810, 13960, 2941, 8732, 347, -585, -316
23820, 13994, 2957, 8734, 347, -584, -306
23830, 13970, 2966, 8724, 360, -605, -323
23840, 13984, 2962, 8717, 358, -583, -303
23850, 13967, 2958, 8720, 343, -587, -306
23860, 13974, 2976, 8726, 352, -587, -300
23870, 13978, 2973, 8725, 361, -608, -308
23880, 13992, 2981, 8721, 374, -610, -304
23890, 13989, 2964, 8695, 386, -628, -301
23900, 13972, 2977, 8687, 386, -639, -303
23910, 13985, 2972, 8673, 397, -647, -308
23920, 14011, 2964, 8676, 378, -655, -315
23930, 14004, 2979, 8679, 382, -647, -317
23940, 14017, 2976, 8663, 357, -641, -315
23950, 14026, 2960, 8649, 369, -639, -303
23960, 14030, 2960, 8666, 373, -629, -300
23970, 14002, 2973, 8646, 388, -640, -315
23980, 14000, 2970, 8649, 374, -646, -308
23990, 14000, 2977, 8622, 385, -648, -299
24000, 14005, 2971, 8661, 349, -634, -290
24010, 14025, 2974, 8666, 369, -648, -303
24020, 14052, 2965, 8664, 370, -660, -314
24030, 14061, 2946, 8634, 376, -689, -311
24040, 14052, 2977, 8547, 394, -664, -292
24050, 14022, 2980, 8565, 380, -630, -296
24060, 13993, 2998, 8622, 364, -610, -313
24070, 14078, 2980, 8604, 387, -656, -318
24080, 14098, 2959, 8588, 375, -665, -326
24090, 14084, 2976, 8599, 364, -641, -318
24100, 14066, 2963, 8591, 366, -621, -294
24110, 14069, 2971, 8576, 433, -662, -299
24120, 14047, 2958, 8588, 415, -651, -288
24130, 14016, 2962, 8556, 424, -664, -297
24140, 14032, 2984, 8512, 408, -713, -307
24150, 14074, 2972, 8553, 409, -699, -306
24160, 14113, 2955, 8567, 411, -680, -304
24170, 14149, 2965, 8540, 421, -667, -298
24180, 14109, 2978, 8489, 431, -652, -289
24190, 14061, 3034, 8478, 395, -591, -293
24200, 14052, 3012, 8518, 358, -568, -293
24210, 14067, 3040, 8539, 348, -567, -296
24220, 14055, 3036, 8539, 345, -580, -296
24230, 14069, 3020, 8498, 355, -617, -301
24240, 14097, 3027, 8476, 388, -646, -319
24250, 14094, 3021, 8465, 388, -661, -314
24260, 14096, 2980, 8431, 375, -638, -312
24270, 14150, 2991, 8441, 360, -637, -304
24280, 14145, 2975, 8433, 371, -608, -297
24290, 14124, 2960, 8438, 355, -582, -295
24300, 14111, 2966, 8495, 359, -567, -299
24310, 14110, 2969, 8521, 364, -574, -300
24320, 14151, 3001, 8520, 377, -607, -299
24330, 14142, 3016, 8444, 399, -664, -322
24340, 14116, 3015, 8412, 406, -665, -335
24350, 14064, 3014, 8428, 371, -665, -315
24360, 14108, 3003, 8457, 346, -640, -294
24370, 14142, 2966, 8475, 379, -625, -297
24380, 14148, 2993, 8428, 378, -612, -306
24390, 14128, 3008, 8417, 377, -617, -310
24400, 14135, 3025, 8406, 379, -576, -322
24410, 14139, 3018, 8406, 364, -571, -321
24420, 14166, 3011, 8391, 364, -566, -314
24430, 14153, 3000, 8393, 369, -561, -308
24440, 14162, 3015, 8384, 380, -564, -299
24450, 14141, 3021, 8382, 357, -553, -289
24460, 14153, 3032, 8379, 373, -553, -303
24470, 14185, 3033, 8342, 369, -554, -302
24480, 14196, 3024, 8352, 357, -544, -299
24490, 14177, 3028, 8352, 334, -523, -300
24500, 14168, 3012, 8341, 348, -512, -303
24510, 14178, 3012, 8350, 341, -512, -306
24520, 14167, 3040, 8356, 338, -469, -303
24530, 14165, 3025, 8363, 331, -472, -297
24540, 14172, 3032, 8378, 335, -465, -310
24550, 14162, 3019, 8389, 319, -431, -292
24560, 14182, 3007, 8380, 324, -423, -297
24570, 14170, 2996, 8368, 312, -422, -298
24580, 14161, 2991, 8353, 317, -404, -297
24590, 14161, 2991, 8365, 317, -398, -311
24600, 14156, 3002, 8370, 293, -376, -298
24610, 14156, 3006, 8381, 306, -360, -299
24620, 14134, 2986, 8406, 284, -349, -310
24630, 14149, 3004, 8406, 276, -344, -293
24640, 14145, 3001, 8393, 294, -348, -297
24650, 14163, 3005, 8408, 318, -375, -290
24660, 14162, 3002, 8411, 323, -381, -299
24670, 14169, 3008, 8399, 313, -386, -306
24680, 14160, 3019, 8417, 320, -393, -310
24690, 14128, 3000, 8410, 319, -384, -292
24700, 14133, 3017, 8420, 324, -386, -299
24710, 14148, 3023, 8404, 319, -390, -289
24720, 14141, 3016, 8391, 320, -375, -287
24730, 14123, 3026, 8410, 307, -361, -284
24740, 14131, 3018, 8432, 292, -338, -291
24750, 14142, 3016, 8457, 299, -343, -298
24760, 14164, 3017, 8449, 299, -356, -295
24770, 14151, 2994, 8391, 333, -383, -300
24780, 14138, 2984, 8384, 327, -348, -292
24790, 14102, 3020, 8408, 320, -327, -296
24800, 14105, 3028, 8405, 307, -317, -302
24810, 14201, 3002, 8462, 282, -324, -298
24820, 14178, 2982, 8446, 283, -318, -304
24830, 14155, 2995, 8450, 300, -288, -299
24840, 14109, 2984, 8504, 295, -256, -271
24850, 14101, 2970, 8501, 328, -289, -297
24860, 14068, 2973, 8500, 320, -315, -299
24870, 14060, 2963, 8458, 322, -345, -305
24880, 14089, 2977, 8443, 323, -399, -303
24890, 14121, 2994, 8462, 317, -392, -289
24900, 14154, 2981, 8528, 328, -373, -292
24910, 14136, 2980, 8484, 318, -341, -285
24920, 14139, 3001, 8475, 325, -332, -283
24930, 14078, 3015, 8478, 305, -281, -284
24940, 14076, 3041, 8505, 282, -267, -285
24950, 14053, 3040, 8521, 277, -268, -278
24960, 14073, 3042, 8540, 285, -294, -286
24970, 14072, 3035, 8502, 322, -343, -295
24980, 14096, 3046, 8493, 304, -358, -292
24990, 14090, 3025, 8478, 317, -358, -296
25000, 14111, 2996, 8472, 304, -357, -299
25010, 14108, 2978, 8474, 303, -334, -288
25020, 14101, 2961, 8469, 296, -321, -289
25030, 14059, 2933, 8545, 278, -291, -287
25040, 14085, 2935, 8581, 271, -296, -295
25050, 14120, 2954, 8581, 294, -332, -297
25060, 14131, 2952, 8550, 317, -374, -303
25070, 14075, 2992, 8503, 325, -395, -308
25080, 14049, 2974, 8521, 299, -374, -293
25090, 14030, 2974, 8552, 289, -357, -290
25100, 14053, 2971, 8621, 322, -369, -282
25110, 14068, 2959, 8584, 335, -387, -283
25120, 14074, 2989, 8558, 343, -396, -294
25130, 14095, 3002, 8540, 338, -394, -295
25140, 14056, 2992, 8527, 327, -364, -319
25150, 14069, 2988, 8557, 296, -343, -314
25160, 14072, 2999, 8596, 299, -341, -316
25170, 14084, 2986, 8587, 318, -346, -304
25180, 14079, 2999, 8561, 311, -350, -299
25190, 14061, 2967, 8544, 314, -323, -293
25200, 14044, 2978, 8545, 306, -324, -290
25210, 14044, 2978, 8555, 299, -323, -289
25220, 14058, 2973, 8566, 300, -337, -281
25230, 14077, 2983, 8565, 307, -342, -271
25240, 14076, 2968, 8571, 313, -349, -284
25250, 14086, 2962, 8543, 316, -340, -294
25260, 14080, 2957, 8569, 290, -313, -302
25270, 14032, 2977, 8566, 302, -279, -301
25280, 14002, 2979, 8594, 303, -269, -292
25290, 14004, 2980, 8618, 313, -309, -287
25300, 14050, 2986, 8633, 276, -314, -289
25310, 14046, 2965, 8646, 318, -330, -292
25320, 14030, 2956, 8641, 315, -315, -295
25330, 14019, 2975, 8642, 303, -326, -297
25340, 14009, 2971, 8632, 298, -316, -293
25350, 14025, 2966, 8637, 316, -328, -300
25360, 14012, 2982, 8646, 308, -327, -288
25370, 14013, 2964, 8655, 300, -331, -295
25380, 14013, 2983, 8654, 298, -331, -296
25390, 14009, 2968, 8670, 309, -334, -294
25400, 14015, 2973, 8655, 305, -332, -300
25410, 14001, 2966, 8652, 318, -334, -304
25420, 14003, 2966, 8663, 317, -332, -297
25430, 14013, 2968, 8696, 308, -331, -291
25440, 14014, 2981, 8689, 327, -351, -293
25450, 14003, 2986, 8696, 335, -375, -289
25460, 14003, 2969, 8673, 310, -370, -281
25470, 13981, 2954, 8679, 310, -368, -284
25480, 14005, 2973, 8696, 310, -365, -282
25490, 14033, 2979, 8699, 303, -386, -286
25500, 14004, 2965, 8663, 336, -397, -295
25510, 14000, 2948, 8654, 322, -363, -284
25520, 13965, 2969, 8709, 321, -336, -293
25530, 13983, 2949, 8723, 326, -344, -302
25540, 13998, 2932, 8728, 331, -377, -312
25550, 14011, 2924, 8755, 319, -397, -310
25560, 13976, 2969, 8770, 320, -430, -312
25570, 13975, 2969, 8735, 333, -458, -301
25580, 13995, 2957, 8728, 350, -475, -284
25590, 13985, 2941, 8471, 376, -506, -291
25600, 13966, 2964, 8626, 385, -511, -305
25610, 13946, 2988, 8612, 382, -495, -296
25620, 13986, 2968, 8642, 367, -475, -289
25630, 14023, 2952, 8739, 327, -393, -275
25640, 14017, 2946, 8721, 331, -400, -288
25650, 13957, 2947, 8683, 354, -408, -289
25660, 13966, 2959, 8668, 326, -412, -267
25670, 13985, 2976, 8697, 302, -402, -280
25680, 14001, 2986, 8696, 295, -403, -281
25690, 13994, 2992, 8722, 313, -390, -296
25700, 13998, 2986, 8713, 315, -389, -287
25710, 13983, 2979, 8712, 322, -409, -276
25720, 13991, 2983, 8693, 328, -444, -290
25730, 13992, 2971, 8669, 316, -438, -284
25740, 13988, 2960, 8644, 315, -420, -281
25750, 14025, 2942, 8686, 307, -398, -281
25760, 13973, 2929, 8723, 310, -372, -275
25770, 13953, 2893, 8742, 329, -372, -285
25780, 13963, 2914, 8790, 321, -371, -278
25790, 14010, 2924, 8783, 344, -460, -290
25800, 14006, 2943, 8729, 346, -485, -296
25810, 13978, 2950, 8678, 345, -497, -307
25820, 13954, 2937, 8713, 329, -446, -311
25830, 13968, 2943, 8742, 323, -442, -302
25840, 13986, 2953, 8766, 341, -460, -283
25850, 13979, 2936, 8765, 352, -458, -278
25860, 13950, 2946, 8699, 366, -445, -294
25870, 13939, 2945, 8665, 348, -425, -294
25880, 13973, 2951, 8731, 319, -405, -304
25890, 13986, 2945, 8745, 323, -398, -315
25900, 14010, 2967, 8749, 319, -407, -318
25910, 14010, 2982, 8742, 328, -409, -306
25920, 13971, 2969, 8743, 346, -414, -302
25930, 13970, 2972, 8734, 346, -429, -298
25940, 13963, 2965, 8733, 339, -431, -292
25950, 13968, 2954, 8704, 320, -443, -288
25960, 13963, 2953, 8699, 341, -467, -295
25970, 13993, 2965, 8706, 329, -468, -297
25980, 13999, 2953, 8698, 333, -451, -298
25990, 14005, 2956, 8701, 334, -439, -294
26000, 14006, 2933, 8715, 315, -418, -298
26010, 13986, 2948, 8750, 310, -408, -299
26020, 13968, 2931, 8754, 332, -433, -298
26030, 13964, 2930, 8760, 308, -437, -288
26040, 13938, 2933, 8772, 323, -456, -296
26050, 13959, 2938, 8749, 337, -507, -307
26060, 13984, 2937, 8760, 332, -510, -305
26070, 13989, 2939, 8748, 334, -520, -310
26080, 14003, 2927, 8786, 349, -537, -313
26090, 13984, 2936, 8726, 336, -544, -313
26100, 13962, 2943, 8705, 351, -542, -310
26110, 13982, 2947, 8728, 357, -535, -311
26120, 13964, 2956, 8737, 362, -548, -310
26130, 13988, 2945, 8722, 344, -561, -308
26140, 13990, 2961, 8708, 351, -567, -312
26150, 13993, 2954, 8733, 355, -578, -301
26160, 13977, 2951, 8691, 377, -607, -308
26170, 13994, 2961, 8691, 376, -608, -317
26180, 13992, 2966, 8682, 365, -608, -313
26190, 13992, 2964, 8676, 352, -582, -297
26200, 14008, 2960, 8680, 365, -604, -315
26210, 13999, 2965, 8652, 367, -610, -322
26220, 14040, 2961, 8664, 360, -591, -308
26230, 14023, 2963, 8660, 362, -586, -299
26240, 14023, 2962, 8668, 370, -586, -297
26250, 14009, 2955, 8658, 377, -598, -293
26260, 14002, 2957, 8647, 347, -596, -293
26270, 14017, 2960, 8630, 381, -620, -315
26280, 14013, 2961, 8652, 373, -607, -301
26290, 14023, 2949, 8662, 351, -598, -291
26300, 14052, 2949, 8658, 348, -616, -300
26310, 14050, 2963, 8643, 374, -632, -300
26320, 14007, 2947, 8614, 374, -608, -296
26330, 13976, 2954, 8640, 391, -597, -313
26340, 13999, 2974, 8666, 392, -598, -316
26350, 14021, 2982, 8671, 384, -649, -329
26360, 14085, 2970, 8614, 387, -700, -340
26370, 14085, 2962, 8578, 405, -667, -304
26380, 14066, 2963, 8566, 423, -655, -312
26390, 13989, 2982, 8502, 423, -685, -334
26400, 14010, 2998, 8509, 386, -666, -307
26410, 14070, 2962, 8535, 391, -667, -313
26420, 14168, 2948, 8557, 402, -634, -295
26430, 14131, 2937, 8530, 417, -623, -306
26440, 14080, 2977, 8526, 397, -589, -294
26450, 14056, 2978, 8512, 388, -565, -300
26460, 14056, 2999, 8569, 360, -585, -292
26470, 14042, 3009, 8569, 340, -583, -293
26480, 14064, 3003, 8554, 361, -620, -289
26490, 14077, 3004, 8528, 380, -651, -310
26500, 14093, 2997, 8493, 385, -674, -309
26510, 14100, 2997, 8495, 382, -670, -303
26520, 14094, 2988, 8464, 380, -660, -307
26530, 14108, 2979, 8485, 369, -620, -317
26540, 14110, 2963, 8483, 346, -594, -294
26550, 14098, 2958, 8484, 361, -610, -305
26560, 14093, 2942, 8511, 363, -590, -299
26570, 14115, 2958, 8525, 375, -616, -305
26580, 14135, 2982, 8537, 382, -631, -297
26590, 14150, 2985, 8510, 407, -680, -315
26600, 14116, 3021, 8397, 379, -675, -321
26610, 14100, 3003, 8412, 374, -652, -315
26620, 14141, 2961, 8479, 341, -589, -285
26630, 14142, 2955, 8491, 354, -592, -292
26640, 14122, 2962, 8461, 384, -615, -308
26650, 14093, 2975, 8418, 398, -629, -321
26660, 14134, 2986, 8415, 385, -634, -322
26670, 14141, 2993, 8415, 373, -625, -337
26680, 14161, 3013, 8422, 379, -618, -338
26690, 14156, 2981, 8460, 367, -599, -329
26700, 14135, 2990, 8449, 376, -597, -336
26710, 14141, 2997, 8437, 379, -608, -320
26720, 14132, 2996, 8422, 375, -597, -315
26730, 14103, 3018, 8396, 399, -640, -320
26740, 14130, 3018, 8402, 378, -662, -300
26750, 14161, 3017, 8387, 393, -648, -293
26760, 14166, 3035, 8372, 379, -636, -293
26770, 14163, 3036, 8348, 399, -645, -301
26780, 14185, 3017, 8385, 403, -658, -293
26790, 14184, 3016, 8344, 384, -643, -310
26800, 14172, 3028, 8313, 374, -625, -304
26810, 14167, 3019, 8341, 370, -645, -310
26820, 14168, 3023, 8350, 356, -623, -306
26830, 14179, 3005, 8364, 369, -631, -309
26840, 14176, 3012, 8361, 362, -622, -293
26850, 14193, 2998, 8353, 371, -609, -304
26860, 14193, 2991, 8340, 358, -604, -297
26870, 14190, 3005, 8295, 367, -617, -301
26880, 14223, 2989, 8291, 359, -605, -301
26890, 14216, 3000, 8291, 353, -591, -306
26900, 14208, 3012, 8306, 359, -568, -303
26910, 14193, 3004, 8285, 353, -579, -313
26920, 14207, 3006, 8279, 358, -572, -309
26930, 14207, 3010, 8291, 358, -561, -306
26940, 14206, 3027, 8264, 344, -546, -307
26950, 14234, 3016, 8262, 328, -511, -313
26960, 14233, 3027, 8250, 328, -496, -320
26970, 14219, 3026, 8261, 316, -474, -310
26980, 14218, 3022, 8292, 309, -447, -298
26990, 14209, 3035, 8298, 305, -405, -301
27000, 14218, 3014, 8296, 316, -391, -294
27010, 14211, 3032, 8298, 303, -387, -304
27020, 14196, 3045, 8273, 288, -370, -298
27030, 14195, 3030, 8283, 314, -365, -287
27040, 14201, 3040, 8308, 303, -353, -285
27050, 14200, 2994, 8334, 299, -352, -295
27060, 14223, 3020, 8307, 318, -398, -312
27070, 14226, 3008, 8278, 308, -390, -294
27080, 14208, 2998, 8271, 308, -382, -289
27090, 14156, 3015, 8298, 301, -344, -295
27100, 14172, 3033, 8307, 301, -353, -306
27110, 14260, 3008, 8321, 289, -350, -305
27120, 14242, 3009, 8338, 265, -318, -298
27130, 14207, 2994, 8375, 287, -290, -307
27140, 14191, 3000, 8369, 295, -280, -289
27150, 14175, 3000, 8367, 319, -310, -302
27160, 14161, 2991, 8371, 301, -322, -299
27170, 14136, 3017, 8383, 309, -346, -310
27180, 14166, 2988, 8336, 322, -394, -310
27190, 14212, 2986, 8320, 316, -389, -297
27200, 14215, 2988, 8332, 320, -361, -303
27210, 14208, 2984, 8354, 322, -335, -293
27220, 14183, 3023, 8335, 331, -288, -299
27230, 14149, 3055, 8332, 307, -256, -289
27240, 14117, 3052, 8367, 279, -248, -280
27250, 14124, 3039, 8396, 274, -263, -290
27260, 14122, 3043, 8425, 260, -279, -299
27270, 14104, 3038, 8425, 282, -313, -310
27280, 14145, 3037, 8371, 301, -339, -297
27290, 14169, 3027, 8341, 299, -336, -294
27300, 14162, 3016, 8350, 295, -327, -294
27310, 14141, 3002, 8363, 292, -301, -303
27320, 14141, 2985, 8384, 263, -273, -297
27330, 14125, 2971, 8422, 256, -263, -293
27340, 14178, 2992, 8424, 315, -380, -295
27350, 14126, 3002, 8376, 317, -382, -303
27360, 14103, 3001, 8408, 303, -353, -294
27370, 14064, 2978, 8451, 288, -347, -290
27380, 14091, 2970, 8512, 295, -347, -272
27390, 14108, 2970, 8491, 317, -380, -284
27400, 14147, 2995, 8450, 339, -388, -296
27410, 14137, 3019, 8423, 326, -369, -291
27420, 14133, 3015, 8436, 303, -334, -303
27430, 14117, 3003, 8457, 271, -299, -304
27440, 14099, 2975, 8512, 277, -289, -308
27450, 14110, 2977, 8518, 307, -309, -312
27460, 14118, 2977, 8490, 311, -337, -312
27470, 14145, 2979, 8467, 313, -351, -291
27480, 14120, 2993, 8436, 309, -332, -278
27490, 14107, 2993, 8455, 301, -326, -286
27500, 14095, 3005, 8470, 311, -332, -302
27510, 14110, 3002, 8458, 302, -326, -274
27520, 14117, 2994, 8475, 293, -341, -286
27530, 14135, 3003, 8452, 296, -331, -287
27540, 14125, 3012, 8487, 298, -324, -287
27550, 14101, 3008, 8482, 300, -291, -289
27560, 14091, 3002, 8507, 288, -283, -293
27570, 14079, 2974, 8517, 290, -282, -293
27580, 14084, 2987, 8558, 303, -314, -291
27590, 14091, 2975, 8553, 315, -330, -295
27600, 14088, 2970, 8572, 304, -321, -294
27610, 14084, 2976, 8546, 295, -310, -291
27620, 14066, 2961, 8536, 312, -319, -291
27630, 14054, 2954, 8557, 306, -316, -293
27640, 14056, 2967, 8555, 292, -300, -280
27650, 14079, 2970, 8537, 293, -320, -287
27660, 14078, 2969, 8541, 293, -322, -292
27670, 14078, 2967, 8524, 287, -313, -294
27680, 14063, 2965, 8546, 319, -300, -290
27690, 14066, 2961, 8566, 301, -298, -296
27700, 14069, 2979, 8573, 314, -313, -289
27710, 14075, 2981, 8568, 313, -322, -294
27720, 14075, 2971, 8559, 300, -315, -303
27730, 14074, 2970, 8558, 313, -313, -296
27740, 14092, 2964, 8570, 308, -316, -299
27750, 14069, 2966, 8574, 309, -305, -292
27760, 14053, 2983, 8583, 287, -304, -284
27770, 14046, 2992, 8592, 288, -288, -272
27780, 14040, 2977, 8599, 293, -288, -270
27790, 14048, 2972, 8627, 275, -283, -275
27800, 14042, 2967, 8629, 287, -286, -276
27810, 14059, 2972, 8630, 291, -307, -286
27820, 14054, 2972, 8604, 284, -324, -269
27830, 14031, 2954, 8564, 302, -303, -273
27840, 14007, 2970, 8634, 294, -267, -287
27850, 14015, 2977, 8657, 303, -273, -297
27860, 14032, 2960, 8656, 298, -295, -306
27870, 14065, 2948, 8700, 294, -318, -309
27880, 14014, 2952, 8702, 312, -331, -311
27890, 14012, 2964, 8688, 338, -350, -294
27900, 14010, 2946, 8676, 329, -381, -284
27910, 13998, 2932, 8654, 364, -435, -284
27920, 13979, 2918, 8588, 369, -449, -295
27930, 13996, 2952, 8577, 360, -446, -302
27940, 14030, 2949, 8660, 319, -383, -276
27950, 14051, 2923, 8711, 319, -359, -277
27960, 14051, 2925, 8694, 322, -359, -282
27970, 14016, 2939, 8684, 320, -369, -277
27980, 13995, 2965, 8641, 297, -345, -280
27990, 13992, 2979, 8662, 307, -359, -282
28000, 13999, 3001, 8666, 290, -339, -296
28010, 13999, 3003, 8675, 299, -337, -299
28020, 13978, 2999, 8674, 311, -361, -292
28030, 13984, 2983, 8662, 326, -384, -288
28040, 13985, 2978, 8650, 326, -412, -295
28050, 13999, 2957, 8659, 337, -416, -292
28060, 14023, 2964, 8649, 344, -421, -284
28070, 14010, 2938, 8647, 323, -391, -278
28080, 14008, 2918, 8647, 320, -372, -293
28090, 13988, 2918, 8694, 327, -357, -286
28100, 13973, 2917, 8780, 316, -386, -284
28110, 14018, 2915, 8771, 327, -423, -290
28120, 14020, 2936, 8715, 364, -492, -321
28130, 13972, 2937, 8650, 332, -486, -311
28140, 13998, 2950, 8680, 329, -456, -309
