timestamp, ax, ay, az, gx, gy, gz
0,-9981,3844,13202,300,-539,-390
10,-10041,3873,13273,247,-577,-370
20,-10022,3952,13223,247,-620,-343
30,-9989,3993,13042,240,-666,-330
40,-9903,4005,12841,163,-749,-350
50,-9826,3941,12939,93,-857,-337
60,-9703,3865,13095,32,-935,-307
70,-9426,3771,13404,-13,-953,-241
80,-9419,3728,13443,-4,-843,-256
90,-9553,3664,13438,-19,-743,-288
100,-9617,3580,13502,-39,-739,-313
110,-9713,3504,13461,-23,-758,-338
120,-9775,3463,13460,-22,-763,-338
130,-9789,3498,13435,-14,-828,-337
140,-9810,3498,13340,31,-857,-369
150,-9804,3452,13238,5,-885,-368
160,-9693,3433,13203,18,-936,-365
170,-9501,3389,13294,64,-852,-316
180,-9463,3404,13318,114,-765,-309
190,-9624,3475,13217,211,-581,-359
200,-9751,3483,13199,232,-585,-383
210,-9760,3476,13275,211,-619,-363
220,-9750,3476,13351,207,-726,-347
230,-9661,3423,13444,236,-789,-328
240,-9534,3438,13404,297,-756,-330
250,-9469,3490,13381,318,-708,-327
260,-9418,3533,13358,334,-682,-331
270,-9415,3533,13361,365,-605,-342
280,-9462,3507,13422,376,-577,-353
290,-9508,3472,13479,372,-542,-339
300,-9509,3533,13528,443,-517,-274
310,-9560,3602,13545,435,-534,-271
320,-9568,3657,13572,456,-524,-287
330,-9644,3645,13485,425,-499,-324
340,-9632,3618,13427,428,-550,-336
350,-9601,3614,13381,385,-598,-323
360,-9510,3611,13371,367,-632,-311
370,-9410,3561,13419,315,-666,-299
380,-9341,3554,13471,287,-628,-298
390,-9329,3518,13490,290,-598,-304
400,-9387,3490,13509,314,-472,-337
410,-9454,3499,13466,329,-406,-340
420,-9576,3530,13472,313,-425,-362
430,-9571,3528,13450,306,-440,-355
440,-9522,3541,13462,314,-452,-369
450,-9515,3554,13453,302,-435,-357
460,-9571,3580,13445,288,-425,-355
470,-9627,3660,13440,259,-424,-368
480,-9595,3638,13403,260,-414,-376
490,-9578,3620,13413,238,-417,-363
500,-9509,3609,13556,211,-437,-357
510,-9567,3570,13437,244,-437,-330
520,-9602,3490,13407,220,-465,-313
530,-9629,3419,13435,234,-513,-306
540,-9543,3410,13446,302,-561,-254
550,-9568,3449,13475,273,-573,-233
560,-9580,3475,13483,289,-611,-230
570,-9580,3500,13458,306,-640,-237
580,-9555,3512,13461,282,-715,-213
590,-9556,3493,13448,281,-751,-210
600,-9551,3525,13434,277,-774,-216
610,-9523,3511,13489,197,-832,-223
620,-9506,3496,13531,210,-921,-260
630,-9502,3481,13559,233,-953,-275
640,-9560,3497,13538,237,-926,-291
650,-9649,3487,13351,349,-856,-286
660,-9672,3478,13299,346,-868,-240
670,-9626,3504,13367,386,-1021,-182
680,-9521,3528,13358,401,-1068,-161
690,-9464,3517,13379,368,-1112,-175
700,-9425,3572,13529,333,-1230,-256
710,-9405,3627,13563,344,-1239,-282
720,-9431,3679,13557,335,-1166,-301
730,-9652,3757,13514,304,-1042,-405
740,-9669,3769,13479,303,-1124,-419
750,-9557,3732,13487,242,-1250,-388
760,-9398,3667,13507,166,-1388,-349
770,-9084,3428,13663,56,-1523,-325
780,-9020,3357,13762,55,-1486,-313
790,-8978,3281,13809,98,-1385,-271
800,-8984,3212,13863,244,-1151,-217
810,-8927,3251,13912,315,-1113,-189
820,-8930,3324,13903,335,-1052,-189
830,-8911,3393,13896,355,-1005,-204
840,-9012,3459,13918,344,-967,-295
850,-9070,3447,13924,322,-949,-311
860,-9128,3514,13903,321,-955,-323
870,-9095,3567,13738,367,-1001,-309
880,-9004,3567,13763,342,-1093,-279
890,-8844,3573,13863,323,-1226,-271
900,-8727,3562,13975,305,-1305,-257
910,-8553,3509,14079,392,-1161,-247
920,-8610,3469,14089,453,-969,-234
930,-8824,3516,13898,594,-594,-221
940,-8895,3557,13813,579,-506,-201
950,-9013,3601,13785,515,-492,-201
960,-9094,3600,13785,471,-521,-204
970,-9018,3543,13730,428,-660,-216
980,-8879,3537,13755,421,-728,-227
990,-8812,3574,13812,396,-771,-244
1000,-8813,3628,13948,386,-694,-285
1010,-8879,3577,13953,391,-601,-271
1020,-8944,3530,13876,439,-518,-280
1030,-8872,3524,13818,382,-415,-239
1040,-8786,3566,13927,359,-381,-222
1050,-8748,3609,13956,400,-326,-250
1060,-8765,3667,13911,406,-226,-276
1070,-9005,3659,13887,431,-100,-329
1080,-9186,3632,13940,416,-166,-338
1090,-9189,3600,13929,429,-258,-284
1100,-9129,3608,13714,463,-329,-220
1110,-9119,3610,13679,440,-383,-206
1120,-9059,3606,13699,383,-445,-192
1130,-8942,3630,13641,274,-527,-198
1140,-8919,3646,13522,221,-610,-223
1150,-8841,3585,13668,112,-776,-267
1160,-9041,3524,13872,60,-767,-224
1170,-9235,3659,13746,82,-973,-268
1180,-8872,3577,14090,-16,-1263,-99
1190,-8648,3567,14097,17,-1250,-66
1200,-8568,3557,14054,91,-1226,-105
1210,-8549,3563,14048,116,-1191,-137
1220,-8663,3436,14169,193,-1163,-201
1230,-8695,3459,14122,290,-1031,-204
1240,-8677,3549,13989,404,-866,-159
1250,-8738,3754,13677,424,-837,-146
1260,-8726,3761,13652,316,-994,-156
1270,-8716,3723,13708,184,-1173,-151
1280,-8646,3691,13899,65,-1384,-150
1290,-8492,3565,14268,-33,-1571,-246
1300,-8512,3475,14391,-20,-1452,-296
1310,-8525,3380,14469,62,-1223,-322
1320,-8617,3408,14108,326,-806,-326
1330,-8643,3403,13992,381,-765,-309
1340,-8581,3437,13961,421,-709,-252
1350,-8460,3601,13936,369,-683,-223
1360,-8505,3567,13986,327,-683,-275
1370,-8539,3548,14093,282,-695,-281
1380,-8530,3517,14153,272,-715,-289
1390,-8593,3537,14075,346,-585,-276
1400,-8827,3378,13996,194,-1004,-108
1410,-8666,3372,14187,148,-1169,14
1420,-8350,3640,14304,253,-1196,105
1430,-8333,3790,14233,289,-1152,38
1440,-8418,3822,14158,306,-1100,-53
1450,-8404,3870,14275,293,-1070,26
1460,-8628,3795,14304,258,-1103,-31
1470,-8862,3668,14311,249,-1212,-2
1480,-8791,3552,14402,223,-1470,455
1490,-8634,3558,14449,282,-1507,659
1500,-8401,3523,14368,346,-1459,785
1510,-8285,3480,14243,414,-1396,807
1520,-7840,3482,14040,472,-1148,758
1530,-7666,3530,14048,458,-1014,671
1540,-7475,3614,14125,451,-889,536
1550,-7621,3722,14352,399,-591,152
1560,-7739,3702,14510,375,-498,-30
1570,-7985,3640,14528,380,-416,-199
1580,-8268,3568,14534,421,-372,-288
1590,-8270,3693,14388,525,-434,-244
1600,-8228,3685,14288,502,-452,-256
1610,-8167,3724,14251,513,-496,-239
1620,-8081,3765,14234,468,-494,-238
1630,-8008,3765,14230,460,-423,-224
1640,-8055,3800,14196,531,-348,-238
1650,-8256,3854,14205,548,-230,-225
1660,-8422,3811,14291,527,-284,-196
1670,-8511,3824,14330,499,-405,-154
1680,-8516,3842,14302,476,-716,-54
1690,-8511,3846,14309,441,-842,2
1700,-8386,3853,14313,425,-992,49
1710,-7996,3893,14258,361,-1229,29
1720,-7813,3885,14259,351,-1219,-29
1730,-7711,3858,14190,365,-1107,-67
1740,-7679,3874,14133,389,-949,-98
1750,-7799,3879,14296,338,-707,-187
1760,-7938,3838,14428,291,-631,-202
1770,-8046,3816,14537,339,-638,-223
1780,-8162,3803,14524,403,-592,-248
1790,-8141,3794,14411,422,-618,-242
1800,-8055,3805,14359,397,-627,-218
1810,-7879,3881,14306,379,-654,-204
1820,-7864,3922,14271,395,-620,-258
1830,-7872,3932,14270,365,-555,-283
1840,-7897,3960,14326,350,-506,-315
1850,-8043,3976,14362,258,-500,-337
1860,-8068,3970,14387,282,-561,-354
1870,-8100,3924,14403,229,-596,-367
1880,-8103,3799,14476,227,-704,-352
1890,-8061,3754,14428,262,-760,-353
1900,-7993,3779,14354,280,-757,-332
1910,-8037,3792,14321,250,-704,-333
1920,-8080,3756,14287,252,-700,-347
1930,-8066,3755,14275,241,-751,-355
1940,-7846,3711,14357,194,-826,-333
1950,-7791,3711,14452,177,-849,-343
1960,-7697,3713,14544,176,-787,-335
1970,-7697,3741,14586,206,-701,-358
1980,-7915,3726,14584,279,-612,-425
1990,-7952,3754,14598,303,-619,-387
2000,-7969,3765,14489,323,-628,-381
2010,-7958,3854,14384,355,-721,-368
2020,-7901,3843,14448,352,-772,-353
2030,-7880,3797,14421,338,-773,-352
2040,-8056,3770,14433,408,-739,-326
2050,-7933,3788,14406,438,-716,-272
2060,-7926,3802,14402,453,-724,-262
2070,-7862,3798,14452,436,-733,-265
2080,-7819,3785,14462,429,-716,-262
2090,-7764,3800,14480,441,-706,-257
2100,-7725,3781,14501,416,-695,-260
2110,-7645,3784,14524,418,-612,-324
2120,-7730,3777,14474,432,-564,-368
2130,-7780,3772,14493,436,-558,-403
2140,-7920,3774,14534,452,-600,-441
2150,-8003,3777,14525,442,-639,-421
2160,-7975,3827,14456,427,-715,-384
2170,-7841,3994,14361,291,-895,-279
2180,-7747,3998,14372,233,-998,-273
2190,-7629,3945,14435,158,-1004,-288
2200,-7553,3727,14603,202,-824,-303
2210,-7559,3681,14661,300,-720,-332
2220,-7533,3718,14686,390,-619,-319
2230,-7509,3866,14573,503,-441,-305
2240,-7557,3938,14441,556,-389,-329
2250,-7667,3959,14342,554,-354,-377
2260,-7714,3965,14327,495,-347,-393
2270,-7825,3854,14384,339,-363,-429
2280,-7827,3806,14464,274,-388,-429
2290,-7780,3782,14562,250,-431,-429
2300,-7724,3753,14615,242,-409,-434
2310,-7722,3769,14634,274,-376,-437
2320,-7744,3778,14616,291,-341,-445
2330,-7709,3770,14626,312,-329,-456
2340,-7773,3782,14507,383,-288,-476
2350,-7805,3805,14428,390,-262,-460
2360,-7793,3800,14400,404,-288,-469
2370,-7779,3847,14472,402,-328,-443
2380,-7787,3724,14476,446,-314,-447
2390,-7807,3710,14503,479,-308,-437
2400,-7818,3695,14472,548,-317,-411
2410,-7834,3705,14499,543,-329,-375
2420,-7814,3722,14530,533,-360,-358
2430,-7807,3743,14519,556,-363,-356
2440,-7795,3741,14521,551,-379,-369
2450,-7821,3736,14531,555,-389,-362
2460,-7820,3753,14520,579,-398,-365
2470,-7819,3764,14480,596,-412,-364
2480,-7842,3772,14457,638,-414,-336
2490,-7877,3799,14445,645,-423,-328
2500,-7906,3834,14383,655,-451,-327
2510,-7828,3871,14354,644,-459,-316
2520,-7796,3867,14363,626,-447,-317
2530,-7814,3859,14316,625,-424,-315
2540,-7836,3928,14302,619,-423,-309
2550,-7821,3944,14361,554,-456,-325
2560,-7817,3921,14392,516,-460,-320
2570,-7839,3943,14408,506,-480,-316
2580,-7835,4026,14442,488,-524,-310
2590,-7860,4037,14485,475,-568,-315
2600,-7898,4039,14555,481,-613,-316
2610,-7905,4012,14520,482,-646,-316
2620,-7945,3980,14467,507,-715,-298
2630,-7904,3986,14385,491,-733,-280
2640,-7826,3960,14317,422,-766,-248
2650,-7832,3939,14318,399,-769,-255
2660,-7798,3899,14316,365,-803,-259
2670,-7745,3896,14347,359,-829,-264
2680,-7646,3863,14372,284,-847,-264
2690,-7639,3878,14403,253,-828,-270
2700,-7648,3899,14447,261,-801,-267
2710,-7679,3931,14514,287,-770,-275
2720,-7737,3952,14505,271,-771,-280
2730,-7731,3931,14526,284,-780,-280
2740,-7735,3963,14553,289,-819,-263
2750,-7698,3952,14492,304,-818,-253
2760,-7635,3951,14482,298,-811,-251
2770,-7597,3940,14474,294,-796,-254
2780,-7579,3934,14500,310,-745,-245
2790,-7550,3905,14551,343,-661,-252
2800,-7573,3917,14556,351,-609,-264
2810,-7615,3902,14544,353,-566,-282
2820,-7654,3912,14503,353,-603,-285
2830,-7645,3932,14523,325,-614,-281
2840,-7609,3945,14555,320,-633,-271
2850,-7602,3973,14534,285,-657,-269
2860,-7590,3971,14552,276,-666,-272
2870,-7570,3959,14535,276,-664,-269
2880,-7556,3953,14543,269,-650,-266
2890,-7560,3938,14515,270,-635,-273
2900,-7577,3950,14542,276,-625,-266
2910,-7575,3939,14555,273,-623,-295
2920,-7564,3970,14562,279,-624,-287
2930,-7565,3964,14569,243,-614,-291
2940,-7574,3964,14593,495,-644,-313
2950,-7540,3942,14604,246,-644,-312
2960,-7546,3924,14590,235,-654,-313
2970,-7534,3937,14622,215,-658,-299
2980,-7540,3926,14610,241,-660,-301
2990,-7531,3926,14614,250,-662,-307
3000,-7504,3920,14585,240,-650,-306
3010,-7447,3909,14580,249,-647,-301
3020,-7432,3887,14582,232,-632,-311
3030,-7450,3872,14584,242,-611,-318
3040,-7461,3870,14608,254,-574,-331
3050,-7467,3862,14611,268,-541,-316
3060,-7478,3903,14610,256,-547,-309
3070,-7498,3877,14636,262,-548,-304
3080,-7500,3903,14639,283,-550,-318
3090,-7480,3898,14637,283,-550,-322
3100,-7468,3903,14629,270,-548,-318
3110,-7469,3894,14666,261,-543,-314
3120,-7450,3900,14682,278,-540,-308
3130,-7488,3905,14658,291,-520,-311
3140,-7466,3881,14645,280,-528,-306
3150,-7464,3857,14635,295,-541,-307
3160,-7446,3870,14658,308,-538,-310
3170,-7470,3881,14621,302,-526,-302
3180,-7479,3879,14635,305,-525,-294
3190,-7488,3884,14634,272,-530,-306
3200,-7437,3879,14636,263,-546,-311
3210,-7378,3856,14624,288,-517,-330
3220,-7393,3867,14625,275,-479,-331
3230,-7417,3911,14605,274,-459,-329
3240,-7433,3895,14675,298,-448,-334
3250,-7475,3886,14668,281,-448,-344
3260,-7496,3882,14695,294,-470,-340
3270,-7540,3918,14701,312,-496,-326
3280,-7525,3896,14678,330,-537,-323
3290,-7490,3881,14655,331,-559,-320
3300,-7497,3869,14666,310,-555,-316
3310,-7489,3865,14604,301,-582,-294
3320,-7454,3854,14618,281,-603,-299
3330,-7434,3840,14617,275,-601,-289
3340,-7433,3824,14633,263,-595,-293
3350,-7323,3831,14702,259,-524,-314
3360,-7385,3818,14710,291,-467,-321
3370,-7397,3831,14701,326,-459,-313
3380,-7403,3843,14726,343,-467,-321
3390,-7430,3853,14715,347,-489,-313
3400,-7421,3866,14684,362,-484,-318
3410,-7437,3860,14676,363,-465,-292
3420,-7377,3846,14686,383,-425,-296
3430,-7375,3834,14693,401,-406,-305
3440,-7399,3829,14666,426,-364,-306
3450,-7407,3860,14658,416,-348,-312
3460,-7448,3882,14685,429,-336,-314
3470,-7461,3862,14651,449,-349,-338
3480,-7440,3838,14645,424,-357,-312
3490,-7441,3840,14631,439,-368,-313
3500,-7437,3879,14657,426,-383,-298
3510,-7463,3894,14636,396,-399,-301
3520,-7460,3882,14613,387,-420,-310
3530,-7429,3895,14636,382,-414,-308
3540,-7417,3881,14645,379,-408,-313
3550,-7437,3878,14657,378,-416,-311
3560,-7430,3861,14648,387,-401,-317
3570,-7457,3876,14639,402,-377,-328
3580,-7464,3875,14622,404,-373,-330
3590,-7472,3881,14608,408,-378,-321
3600,-7458,3871,14632,396,-401,-327
3610,-7456,3862,14626,406,-410,-323
3620,-7457,3878,14678,398,-410,-332
3630,-7456,3887,14678,410,-418,-308
3640,-7458,3891,14655,391,-426,-313
3650,-7435,3877,14650,392,-417,-304
3660,-7450,3889,14637,413,-417,-295
3670,-7457,3893,14633,404,-421,-297
3680,-7452,3898,14616,421,-416,-298
3690,-7451,3899,14637,415,-410,-307
3700,-7429,3879,14615,431,-415,-294
3710,-7427,3871,14605,435,-408,-310
3720,-7457,3908,14628,423,-398,-309
3730,-7469,3906,14607,410,-399,-314
3740,-7480,3929,14620,403,-416,-316
3750,-7465,3926,14636,383,-416,-308
3760,-7467,3933,14616,404,-424,-309
3770,-7475,3935,14603,416,-424,-317
3780,-7477,3926,14618,402,-428,-322
3790,-7461,3935,14615,396,-419,-316
3800,-7495,3944,14631,410,-414,-321
3810,-7495,3932,14623,407,-418,-325
3820,-7487,3928,14617,396,-428,-307
3830,-7473,3933,14616,396,-447,-317
3840,-7459,3925,14609,365,-443,-309
3850,-7472,3918,14611,364,-451,-314
3860,-7502,3915,14588,359,-456,-318
3870,-7518,3935,14614,335,-461,-301
3880,-7459,3938,14597,337,-485,-310
3890,-7415,3887,14600,322,-476,-314
3900,-7404,3870,14578,302,-458,-313
3910,-7420,3938,14605,310,-441,-321
3920,-7451,3929,14624,333,-430,-334
3930,-7436,3920,14655,318,-427,-342
3940,-7448,3937,14659,338,-439,-347
3950,-7523,3946,14669,323,-486,-322
3960,-7507,3932,14670,315,-507,-322
3970,-7540,3935,14670,282,-508,-318
3980,-7568,3911,14647,334,-531,-306
3990,-7557,3920,14615,323,-566,-306
4000,-7505,3918,14591,302,-586,-283
4010,-7446,3911,14561,309,-584,-282
4020,-7415,3913,14597,291,-543,-297
4030,-7390,3911,14610,289,-530,-302
4040,-7360,3896,14620,279,-516,-301
4050,-7351,3870,14656,310,-477,-292
4060,-7392,3890,14669,321,-461,-303
4070,-7429,3908,14666,322,-460,-306
4080,-7467,3933,14655,334,-462,-311
4090,-7473,3927,14647,376,-488,-309
4100,-7449,3906,14648,345,-492,-305
4110,-7432,3913,14626,348,-485,-295
4120,-7436,3932,14636,344,-478,-298
4130,-7450,3929,14609,346,-446,-297
4140,-7412,3907,14610,343,-408,-301
4150,-7415,3910,14613,358,-387,-301
4160,-7422,3939,14622,356,-400,-320
4170,-7453,3934,14632,342,-401,-315
4180,-7491,3913,14620,326,-420,-314
4190,-7427,3901,14640,338,-444,-319
4200,-7415,3920,14649,324,-456,-317
4210,-7436,3942,14635,354,-476,-338
4220,-7460,3933,14644,345,-459,-335
4230,-7477,3943,14644,315,-472,-340
4240,-7460,3922,14640,304,-477,-327
4250,-7436,3912,14657,317,-479,-322
4260,-7432,3901,14637,321,-479,-332
4270,-7440,3914,14630,321,-482,-335
4280,-7416,3910,14623,324,-469,-331
4290,-7466,3926,14622,314,-447,-320
4300,-7475,3900,14627,312,-447,-332
4310,-7488,3887,14630,327,-466,-335
4320,-7442,3899,14656,306,-475,-310
4330,-7413,3900,14631,323,-473,-308
4340,-7449,3894,14634,332,-464,-321
4350,-7454,3899,14636,324,-452,-317
4360,-7462,3920,14643,300,-463,-307
4370,-7430,3910,14660,325,-466,-315
4380,-7441,3923,14645,317,-464,-310
4390,-7435,3889,14641,325,-464,-314
4400,-7415,3909,14661,351,-460,-325
4410,-7416,3899,14651,356,-461,-321
4420,-7426,3900,14657,362,-446,-313
4430,-7431,3922,14655,361,-455,-317
4440,-7438,3917,14649,362,-443,-334
4450,-7441,3905,14637,342,-447,-319
4460,-7426,3912,14630,335,-451,-315
4470,-7437,3912,14649,343,-441,-322
4480,-7443,3905,14654,341,-431,-324
4490,-7427,3928,14667,336,-423,-311
4500,-7440,3901,14648,348,-429,-323
4510,-7455,3911,14650,331,-434,-321
4520,-7460,3907,14642,338,-458,-325
4530,-7478,3910,14638,333,-472,-317
4540,-7204,3889,14649,328,-492,-317
4550,-7418,3896,14633,341,-500,-310
4560,-7418,3881,14653,318,-472,-296
4570,-7485,3943,14636,325,-461,-301
4580,-7445,3913,14622,334,-490,-315
4590,-7410,3856,14609,314,-497,-311
4600,-7393,3899,14616,309,-504,-330
4610,-7384,3928,14654,304,-487,-344
4620,-7382,3902,14684,320,-500,-350
4630,-7413,3926,14692,327,-469,-329
4640,-7460,3916,14721,336,-499,-331
4650,-7483,3941,14723,344,-528,-308
4660,-7501,3930,14707,338,-536,-299
4670,-7486,3920,14709,341,-567,-302
4680,-7504,3908,14691,328,-559,-299
4690,-7482,3909,14675,330,-575,-295
4700,-7465,3898,14667,308,-603,-290
4710,-7442,3888,14704,297,-619,-277
4720,-7438,3880,14685,292,-625,-269
4730,-7393,3882,14763,293,-651,-262
4740,-7265,3888,14693,274,-676,-256
4750,-7249,3880,14660,281,-678,-271
4760,-7242,3871,14700,276,-666,-263
4770,-7263,3859,14710,290,-659,-276
4780,-7324,3821,14678,308,-653,-294
4790,-7313,3827,14654,349,-670,-309
4800,-7299,3860,14620,380,-659,-300
4810,-7338,3948,14624,363,-655,-278
4820,-7342,3954,14630,357,-663,-305
4830,-7369,3954,14639,345,-654,-309
4840,-7376,3938,14648,336,-645,-329
4850,-7355,3958,14674,360,-585,-318
4860,-7345,4001,14683,340,-539,-333
4870,-7361,4015,14693,341,-509,-341
4880,-7372,3986,14648,340,-484,-346
4890,-7364,3967,14655,314,-504,-335
4900,-7344,3916,14722,221,-555,-315
4910,-7307,3888,14706,246,-584,-323
4920,-7326,3881,14665,243,-600,-335
4930,-7283,3841,14633,240,-610,-340
4940,-7269,3844,14645,264,-602,-331
4950,-7215,3857,14657,258,-630,-334
4960,-7168,3857,14770,225,-499,-363
4970,-7243,3843,14756,265,-393,-380
4980,-7289,3855,14764,303,-350,-394
4990,-7343,3833,14751,307,-322,-399
5000,-7347,3854,14778,326,-388,-383
5010,-7345,3843,14763,306,-414,-381
5020,-7259,3843,14789,306,-425,-356
5030,-7265,3837,14818,335,-416,-357
5040,-7288,3839,14802,348,-379,-350
5050,-7320,3806,14794,359,-359,-340
5060,-7317,3776,14792,388,-343,-355
5070,-7343,3783,14751,410,-349,-350
5080,-7339,3778,14716,416,-331,-351
5090,-7344,3797,14709,400,-339,-340
5100,-7345,3820,14720,405,-349,-328
5110,-7330,3806,14721,402,-358,-308
5120,-7310,3881,14695,432,-369,-277
5130,-7357,3872,14680,428,-379,-277
5140,-7372,3879,14687,430,-385,-263
5150,-7304,3913,14753,423,-458,-247
5160,-7289,3908,14739,440,-448,-251
5170,-7280,3914,14723,441,-446,-262
5180,-7300,3910,14701,451,-434,-257
5190,-7316,3876,14689,464,-398,-258
5200,-7264,3918,14705,462,-393,-262
5210,-7274,3929,14703,455,-386,-255
5220,-7335,3861,14764,443,-305,-280
5230,-7365,3894,14712,493,-288,-277
5240,-7378,3908,14691,502,-266,-286
5250,-7343,3916,14712,516,-288,-297
5260,-7363,3941,14651,502,-292,-298
5270,-7344,3943,14654,509,-303,-290
5280,-7342,3929,14643,496,-291,-291
5290,-7432,3950,14621,484,-280,-316
5300,-7331,3965,14655,445,-351,-314
5310,-7302,3961,14622,443,-335,-326
5320,-7388,4001,14575,442,-317,-323
5330,-7389,4000,14635,396,-300,-341
5340,-7367,4011,14621,433,-311,-360
5350,-7400,3998,14611,400,-320,-385
5360,-7443,3969,14662,389,-354,-359
5370,-7460,4012,14687,382,-390,-342
5380,-7471,4013,14677,347,-419,-330
5390,-7525,3995,14708,336,-443,-318
5400,-7570,4004,14648,327,-472,-328
5410,-7552,4026,14604,323,-497,-318
5420,-7388,3966,14551,291,-524,-334
5430,-7377,3961,14550,286,-497,-352
5440,-7392,3950,14562,279,-466,-353
5450,-7408,3947,14575,279,-456,-340
5460,-7345,3900,14619,263,-497,-330
5470,-7332,3892,14649,275,-515,-335
5480,-7348,3886,14659,273,-510,-322
5490,-7424,3915,14671,273,-522,-335
5500,-7432,3912,14679,291,-559,-329
5510,-7453,3914,14669,280,-565,-307
5520,-7447,3900,14693,268,-575,-302
5530,-7429,3918,14683,319,-597,-293
5540,-7378,3909,14702,314,-580,-273
5550,-7312,3882,14679,357,-540,-292
5560,-7322,3890,14648,379,-488,-301
5570,-7304,3936,14681,372,-452,-293
5580,-7405,3930,14694,411,-428,-295
5590,-7403,3956,14675,404,-485,-310
5600,-7368,3963,14666,391,-517,-307
5610,-7335,3979,14662,372,-517,-309
5620,-7359,4008,14660,365,-531,-308
5630,-7393,3990,14649,332,-520,-296
5640,-7380,3990,14643,328,-544,-295
5650,-7400,3981,14663,336,-554,-295
5660,-7343,3985,14646,331,-556,-294
5670,-7335,3963,14660,322,-549,-288
5680,-7324,3987,14654,294,-535,-298
5690,-7353,3968,14659,297,-540,-329
5700,-7350,3973,14680,286,-553,-326
5710,-7368,3982,14668,287,-568,-336
5720,-7386,3970,14669,267,-584,-334
5730,-7340,3928,14654,261,-595,-321
5740,-7305,3932,14662,262,-593,-310
5750,-7291,3941,14670,238,-602,-318
5760,-7335,3908,14660,203,-546,-311
5770,-7352,3913,14653,234,-553,-327
5780,-7342,3917,14671,243,-568,-323
5790,-7289,3910,14693,235,-551,-354
5800,-7280,3912,14722,254,-514,-338
5810,-7306,3906,14730,270,-507,-338
5820,-7315,3910,14743,265,-515,-343
5830,-7317,3907,14732,230,-508,-333
5840,-7341,3906,14733,256,-518,-326
5850,-7320,3885,14722,272,-518,-322
5860,-7301,3885,14735,267,-515,-322
5870,-7310,3871,14724,266,-501,-318
5880,-7321,3874,14709,278,-508,-307
5890,-7338,3879,14700,278,-507,-304
5900,-7340,3881,14696,310,-515,-316
5910,-7312,3891,14714,289,-520,-293
5920,-7299,3893,14737,304,-513,-293
5930,-7291,3887,14768,333,-519,-303
5940,-7240,3878,14761,331,-511,-298
5950,-7221,3877,14729,317,-477,-296
5960,-7286,3880,14718,319,-476,-297
5970,-7290,3890,14706,324,-467,-292
5980,-7309,3900,14715,318,-473,-296
5990,-7261,3917,14688,292,-490,-290
6000,-7194,3883,14714,302,-517,-299
6010,-7173,3875,14710,298,-498,-306
6020,-7253,3925,14719,305,-451,-321
6030,-7259,3895,14717,315,-462,-343
6040,-7292,3892,14739,299,-498,-344
6050,-7339,3910,14751,293,-492,-332
6060,-7353,3923,14776,268,-522,-314
6070,-7317,3904,14795,276,-592,-311
6080,-7322,3876,14781,285,-568,-298
6090,-7355,3890,14776,287,-558,-301
6100,-7371,3879,14738,301,-575,-301
6110,-7241,3848,14706,272,-581,-285
6120,-7232,3853,14697,262,-564,-280
6130,-7236,3846,14691,256,-541,-289
6140,-7230,3847,14689,269,-524,-302
6150,-7204,3848,14697,272,-523,-315
6160,-7188,3833,14720,274,-510,-316
6170,-7206,3830,14775,278,-494,-300
6180,-7229,3859,14801,288,-499,-310
6190,-7261,3859,14831,292,-505,-308
6200,-7257,3846,14803,303,-517,-298
6210,-7241,3870,14788,304,-541,-289
6220,-7244,3870,14766,323,-533,-290
6230,-7227,3871,14776,316,-516,-281
6240,-7181,3855,14767,332,-495,-278
6250,-7186,3844,14755,357,-474,-288
6260,-7170,3860,14759,379,-431,-293
6270,-7205,3888,14763,372,-406,-310
6280,-7203,3879,14786,358,-439,-326
6290,-7220,3884,14781,364,-444,-328
6300,-7274,3873,14761,353,-471,-323
6310,-7278,3901,14752,315,-463,-316
6320,-7240,3877,14728,313,-466,-310
6330,-7242,3864,14782,312,-473,-304
6340,-7207,3856,14750,323,-441,-307
6350,-7224,3875,14754,336,-434,-324
6360,-7228,3898,14742,336,-435,-326
6370,-7218,3879,14765,324,-439,-323
6380,-7243,3853,14765,331,-424,-329
6390,-7240,3863,14794,323,-423,-330
6400,-7234,3857,14788,338,-437,-342
6410,-7255,3856,14789,349,-453,-330
6420,-7218,3859,14775,347,-453,-318
6430,-7220,3858,14774,336,-441,-323
6440,-7224,3866,14781,339,-434,-314
6450,-7235,3845,14735,360,-431,-333
6460,-7239,3850,14720,361,-408,-331
6470,-7247,3851,14725,368,-416,-332
6480,-7248,3842,14770,342,-417,-338
6490,-7226,3864,14776,343,-408,-335
6500,-7226,3866,14754,347,-405,-335
6510,-7233,3863,14778,360,-400,-326
6520,-7250,3865,14762,349,-411,-329
6530,-7249,3852,14753,372,-418,-330
6540,-7223,3864,14765,366,-420,-325
6550,-7237,3864,14751,372,-413,-318
6560,-7240,3864,14744,370,-419,-329
6570,-7259,3870,14734,367,-405,-332
6580,-7264,3864,14750,345,-393,-332
6590,-7270,3864,14764,359,-394,-325
6600,-7275,3872,14765,361,-407,-329
6610,-7290,3872,14756,384,-403,-319
6620,-7275,3881,14758,370,-407,-322
6630,-7247,3869,14721,381,-420,-323
6640,-7232,3847,14718,388,-420,-324
6650,-7241,3838,14724,375,-421,-340
6660,-7270,3830,14724,359,-403,-321
6670,-7314,3892,14753,354,-412,-309
6680,-7317,3904,14742,381,-414,-296
6690,-7229,3869,14716,376,-451,-310
6700,-7188,3859,14715,335,-461,-332
6710,-7250,3877,14710,386,-427,-332
6720,-7272,3890,14708,379,-415,-337
6730,-7248,3883,14723,363,-409,-342
6740,-7255,3899,14734,367,-407,-343
6750,-7313,3915,14756,355,-420,-332
6760,-7351,3918,14787,351,-498,-319
6770,-7346,3874,14783,362,-531,-316
6780,-7361,3883,14770,355,-528,-298
6790,-7337,3884,14718,356,-535,-294
6800,-7271,3878,14672,335,-590,-290
6810,-7212,3876,14686,304,-561,-273
6820,-7209,3884,14677,312,-524,-299
6830,-7217,3867,14710,294,-473,-305
6840,-7195,3842,14735,309,-467,-315
6850,-7170,3850,14721,309,-453,-313
6860,-7202,3845,14722,313,-449,-321
6870,-7241,3865,14774,326,-472,-317
6880,-7254,3855,14784,329,-476,-313
6890,-7254,3865,14774,346,-473,-308
6900,-7233,3851,14744,348,-485,-287
6910,-7250,3861,14727,372,-479,-301
6920,-7260,3866,14752,357,-462,-299
6930,-7239,3894,14754,360,-451,-296
6940,-7217,3884,14750,376,-418,-301
6950,-7235,3866,14721,374,-395,-315
6960,-7234,3888,14742,385,-372,-319
6970,-7293,3940,14743,367,-377,-322
6980,-7307,3886,14724,360,-387,-322
6990,-7271,3884,14722,341,-428,-329
7000,-7220,3911,14729,337,-451,-337
7010,-7263,3925,14759,350,-442,-330
7020,-7284,3902,14753,340,-479,-342
7030,-7269,3892,14752,344,-473,-321
7040,-7256,3896,14758,331,-478,-318
7050,-7231,3878,14741,309,-457,-306
7060,-7258,3870,14741,314,-447,-315
7070,-7263,3880,14750,314,-448,-318
7080,-7265,3878,14753,328,-454,-332
7090,-7265,3856,14739,315,-449,-338
7100,-7246,3875,14732,316,-443,-322
7110,-7247,3872,14727,322,-442,-325
7120,-7266,3865,14742,315,-447,-330
7130,-7264,3855,14732,335,-455,-329
7140,-7269,3863,14758,343,-457,-325
7150,-7248,3855,14741,336,-455,-324
7160,-7255,3864,14744,325,-443,-309
7170,-7261,3864,14732,341,-456,-318
7180,-7261,3872,14727,338,-445,-320
7190,-7239,3859,14751,315,-435,-320
7200,-7238,3869,14752,336,-448,-332
7210,-7244,3860,14756,341,-440,-330
7220,-7253,3875,14769,358,-428,-333
7230,-7264,3880,14752,358,-426,-310
7240,-7257,3882,14758,338,-440,-311
7250,-7271,3877,14739,349,-441,-317
7260,-7268,3878,14730,333,-440,-305
7270,-7265,3861,14725,375,-436,-324
7280,-7275,3889,14742,342,-449,-325
7290,-7283,3888,14731,345,-440,-317
7300,-7287,3894,14727,349,-437,-334
7310,-7252,3897,14741,329,-443,-325
7320,-7239,3877,14761,335,-432,-332
7330,-7248,3874,14768,336,-438,-326
7340,-7260,3866,14767,329,-433,-318
7350,-7253,3860,14776,325,-434,-315
7360,-7279,3872,14750,330,-439,-310
7370,-7260,3851,14743,335,-446,-315
7380,-7231,3857,14741,351,-456,-315
7390,-7279,3840,14711,340,-444,-325
7400,-7293,3850,14718,349,-441,-327
7410,-7332,3880,14741,337,-442,-313
7420,-7345,3910,14738,365,-457,-304
7430,-7219,3839,14711,333,-513,-313
7440,-7169,3832,14693,310,-503,-307
7450,-7214,3868,14678,321,-471,-317
7460,-7272,3902,14707,318,-438,-337
7470,-7228,3858,14747,330,-438,-350
7480,-7236,3879,14751,348,-441,-339
7490,-7332,3913,14791,325,-471,-312
7500,-7345,3908,14814,338,-511,-305
7510,-7300,3893,14790,340,-552,-303
7520,-7298,3876,14782,344,-560,-308
7530,-7343,3878,14721,335,-557,-292
7540,-7290,3874,14712,304,-579,-299
7550,-7235,3879,14687,284,-582,-287
7560,-7224,3863,14685,282,-547,-291
7570,-7201,3877,14711,275,-530,-310
7580,-7190,3842,14708,268,-516,-313
7590,-7171,3826,14762,280,-509,-314
7600,-7177,3825,14768,288,-490,-315
7610,-7200,3824,14806,314,-497,-321
7620,-7241,3831,14811,299,-488,-308
7630,-7236,3828,14810,325,-499,-297
7640,-7231,3830,14794,351,-515,-309
7650,-7188,3840,14779,362,-483,-295
7660,-7229,3837,14773,355,-468,-292
7670,-7243,3872,14758,378,-447,-292
7680,-7241,3870,14772,361,-442,-302
7690,-7202,3853,14722,362,-426,-307
7700,-7206,3873,14759,381,-382,-317
7710,-7235,3891,14792,391,-382,-336
7720,-7261,3921,14736,383,-353,-326
7730,-7255,3867,14742,382,-426,-326
7740,-7199,3861,14712,367,-435,-319
7750,-7228,3891,14757,355,-434,-326
7760,-7261,3880,14756,353,-445,-334
7770,-7293,3892,14749,357,-453,-332
7780,-7219,3889,14748,343,-453,-316
7790,-7239,3882,14747,337,-441,-321
7800,-7237,3876,14769,344,-426,-315
7810,-7260,3882,14779,330,-437,-317
7820,-7228,3888,14769,351,-439,-324
7830,-7222,3885,14756,350,-442,-328
7840,-7233,3872,14736,337,-434,-332
7850,-7246,3871,14725,332,-430,-326
7860,-7226,3847,14743,346,-444,-323
7870,-7247,3850,14767,330,-430,-304
7880,-7233,3863,14755,354,-452,-314
7890,-7252,3852,14756,366,-451,-313
7900,-7244,3861,14747,339,-450,-306
7910,-7247,3848,14716,353,-451,-309
7920,-7244,3854,14721,338,-455,-320
7930,-7226,3861,14739,344,-455,-324
7940,-7226,3853,14765,332,-446,-309
7950,-7217,3851,14767,328,-430,-316
7960,-7242,3859,14757,339,-422,-322
7970,-7229,3877,14777,333,-422,-314
7980,-7257,3887,14747,327,-429,-317
7990,-7262,3876,14757,346,-448,-319
8000,-7248,3892,14758,345,-441,-308
8010,-7255,3892,14748,356,-440,-304
8020,-7262,3868,14732,342,-435,-307
8030,-7259,3879,14744,336,-435,-319
8040,-7286,3895,14739,358,-432,-320
8050,-7269,3876,14752,369,-461,-323
8060,-7251,3869,14750,352,-448,-314
8070,-7285,3872,14759,338,-444,-318
8080,-7249,3856,14765,332,-460,-333
8090,-7248,3857,14757,341,-450,-323
8100,-7256,3867,14758,338,-460,-320
8110,-7240,3860,14766,337,-442,-325
8120,-7249,3857,14768,330,-435,-320
8130,-7257,3884,14769,355,-438,-315
8140,-7252,3864,14750,354,-431,-309
8150,-7253,3862,14739,369,-450,-311
8160,-7244,3851,14747,370,-451,-311
8170,-7237,3858,14735,361,-453,-300
8180,-7211,3852,14723,349,-469,-305
8190,-7235,3850,14722,355,-461,-310
8200,-7292,3873,14725,350,-456,-312
8210,-7332,3899,14745,342,-461,-308
8220,-7176,3887,14713,315,-434,-318
8230,-7250,3926,14706,319,-398,-331
8240,-7243,3876,14756,293,-398,-339
8250,-7252,3898,14749,315,-410,-339
8260,-7281,3918,14803,290,-424,-331
8270,-7313,3906,14786,300,-460,-321
8280,-7345,3877,14796,297,-510,-307
8290,-7343,3876,14782,286,-529,-313
8300,-7364,3868,14760,269,-534,-296
8310,-7309,3859,14732,267,-589,-293
8320,-7208,3848,14704,239,-597,-300
8330,-7206,3852,14699,228,-573,-299
8340,-7215,3846,14743,205,-545,-306
8350,-7166,3818,14735,232,-510,-325
8360,-7151,3808,14739,236,-507,-321
8370,-7163,3800,14769,258,-517,-326
8380,-7206,3806,14801,275,-491,-323
8390,-7210,3810,14811,286,-487,-318
8400,-7210,3812,14811,308,-496,-319
8410,-7215,3803,14785,327,-492,-314
8420,-7197,3826,14770,333,-484,-311
8430,-7253,3856,14794,339,-460,-298
8440,-7243,3860,14789,339,-458,-300
8450,-7201,3848,14800,341,-459,-309
8460,-7202,3813,14757,339,-384,-314
8470,-7220,3853,14769,363,-390,-318
8480,-7231,3891,14758,376,-377,-326
8490,-7280,3861,14740,367,-388,-335
8500,-7226,3839,14723,356,-415,-331
8510,-7185,3846,14757,365,-439,-342
8520,-7220,3851,14784,353,-448,-343
8530,-7244,3853,14782,337,-452,-338
8540,-7267,3847,14763,333,-455,-335
8550,-7226,3845,14749,313,-461,-325
8560,-7230,3839,14758,309,-463,-306
8570,-7209,3839,14767,308,-462,-315
8580,-7231,3850,14794,323,-453,-319
8590,-7228,3823,14783,340,-462,-335
8600,-7210,3833,14751,308,-436,-327
8610,-7216,3834,14738,322,-446,-331
8620,-7220,3821,14767,321,-445,-333
8630,-7228,3810,14763,346,-445,-330
8640,-7220,3822,14783,349,-441,-326
8650,-7227,3815,14802,340,-442,-312
8660,-7235,3813,14784,366,-454,-315
8670,-7219,3820,14768,358,-448,-317
8680,-7225,3825,14755,344,-448,-314
8690,-7234,3832,14753,337,-438,-305
8700,-7244,3849,14756,348,-442,-319
8710,-7229,3844,14747,344,-440,-311
8720,-7213,3846,14781,355,-440,-330
8730,-7195,3854,14774,345,-426,-306
8740,-7230,3860,14781,356,-428,-320
8750,-7230,3845,14770,350,-439,-332
8760,-7223,3863,14762,345,-442,-325
8770,-7213,3867,14771,343,-433,-309
8780,-7242,3847,14769,376,-444,-316
8790,-7233,3848,14764,375,-453,-317
8800,-7235,3844,14761,353,-440,-318
8810,-7255,3830,14761,352,-433,-316
8820,-7240,3831,14770,343,-432,-306
8830,-7258,3833,14761,353,-433,-320
8840,-7257,3838,14755,343,-442,-325
8850,-7236,3849,14753,344,-451,-324
8860,-7225,3841,14764,340,-448,-323
8870,-7210,3838,14768,346,-454,-320
8880,-7236,3841,14752,334,-438,-326
8890,-7224,3850,14757,339,-427,-318
8900,-7224,3844,14764,336,-431,-313
8910,-7216,3842,14753,344,-427,-320
8920,-7228,3846,14777,330,-428,-332
8930,-7219,3859,14781,354,-429,-333
8940,-7256,3858,14794,345,-427,-335
8950,-7260,3842,14756,351,-440,-315
8960,-7257,3833,14749,370,-437,-311
8970,-7227,3843,14737,364,-447,-316
8980,-7248,3823,14741,346,-447,-321
8990,-7286,3843,14747,338,-432,-309
9000,-7294,3856,14771,342,-444,-310
9010,-7240,3846,14764,342,-479,-303
9020,-7172,3809,14752,323,-488,-299
9030,-7125,3806,14742,320,-476,-319
9040,-7236,3868,14740,344,-419,-352
9050,-7235,3851,14758,352,-419,-358
9060,-7203,3809,14768,343,-435,-358
9070,-7213,3835,14780,354,-425,-342
9080,-7286,3870,14803,319,-455,-308
9090,-7314,3860,14800,313,-500,-306
9100,-7324,3840,14826,339,-531,-301
9110,-7316,3850,14776,321,-534,-289
9120,-7326,3823,14756,331,-551,-283
9130,-7264,3832,14742,322,-579,-285
9140,-7199,3822,14712,290,-581,-275
9150,-7186,3842,14727,272,-522,-299
9160,-7202,3830,14741,276,-493,-305
9170,-7188,3827,14724,284,-488,-313
9180,-7156,3813,14750,290,-494,-314
9190,-7228,3816,14818,325,-480,-309
9200,-7206,3802,14805,347,-498,-316
9210,-7193,3802,14783,360,-489,-305
9220,-7200,3805,14780,360,-490,-302
9230,-7213,3824,14779,363,-475,-303
9240,-7214,3858,14787,353,-449,-293
9250,-7177,3833,14778,387,-443,-313
9260,-7175,3828,14753,383,-414,-309
9270,-7205,3855,14774,372,-373,-316
9280,-7246,3865,14781,398,-384,-321
9290,-7270,3846,14761,368,-383,-317
9300,-7254,3827,14756,365,-414,-337
9310,-7193,3828,14772,373,-432,-341
9320,-7210,3849,14780,352,-436,-325
9330,-7235,3840,14770,351,-454,-319
9340,-7224,3850,14769,343,-468,-316
9350,-7193,3839,14746,334,-473,-321
9360,-7216,3851,14771,337,-459,-311
9370,-7224,3841,14780,345,-466,-316
9380,-7233,3841,14797,316,-451,-328
9390,-7236,3838,14781,342,-444,-328
9400,-7238,3848,14767,334,-447,-330
9410,-7214,3849,14753,319,-434,-322
9420,-7227,3834,14759,341,-442,-340
9430,-7223,3817,14773,337,-442,-335
9440,-7227,3820,14779,332,-447,-318
9450,-7224,3822,14790,340,-445,-320
9460,-7218,3821,14772,355,-451,-317
9470,-7225,3822,14768,344,-452,-316
9480,-7230,3821,14760,342,-453,-318
9490,-7229,3819,14774,353,-449,-316
9500,-7214,3829,14774,318,-440,-322
9510,-7207,3813,14774,332,-429,-313
9520,-7204,3830,14784,363,-440,-326
9530,-7227,3829,14783,343,-425,-329
9540,-7221,3835,14798,349,-433,-330
9550,-7226,3839,14791,331,-425,-320
9560,-7216,3849,14783,347,-422,-312
9570,-7247,3837,14781,351,-423,-325
9580,-7255,3857,14758,356,-425,-319
9590,-7239,3839,14747,359,-427,-323
9600,-7226,3829,14755,360,-433,-325
9610,-7228,3858,14761,360,-423,-325
9620,-7249,3853,14785,357,-416,-320
9630,-7251,3859,14776,363,-413,-320
9640,-7242,3848,14762,346,-422,-320
9650,-7251,3855,14760,332,-431,-312
9660,-7242,3844,14742,335,-437,-317
9670,-7223,3821,14780,327,-436,-315
9680,-7206,3840,14783,332,-433,-314
9690,-7235,3811,14780,333,-428,-311
9700,-7222,3823,14754,344,-427,-329
9710,-7229,3831,14750,341,-428,-324
9720,-7250,3822,14770,341,-424,-324
9730,-7256,3833,14757,349,-416,-318
9740,-7235,3816,14786,357,-423,-330
9750,-7239,3839,14784,355,-427,-319
9760,-7245,3840,14784,350,-410,-325
9770,-7257,3839,14777,340,-439,-313
9780,-7250,3822,14767,343,-461,-317
9790,-7232,3839,14745,367,-458,-316
9800,-7232,3824,14762,364,-434,-322
9810,-7264,3819,14747,368,-433,-319
9820,-7301,3817,14759,357,-434,-315
9830,-7302,3857,14741,367,-441,-302
9840,-7229,3820,14747,332,-472,-298
9850,-7137,3804,14724,322,-470,-299
9860,-7165,3837,14716,321,-444,-317
9870,-7266,3876,14739,332,-385,-337
9880,-7230,3832,14774,352,-410,-354
9890,-7207,3846,14771,354,-416,-345
9900,-7271,3877,14794,337,-418,-335
9910,-7318,3873,14823,365,-476,-321
9920,-7339,3852,14809,345,-503,-316
9930,-7310,3851,14781,344,-512,-302
9940,-7352,3837,14773,330,-537,-301
9950,-7324,3826,14734,314,-559,-296
9960,-7188,3824,14715,271,-563,-280
9970,-7184,3829,14723,259,-529,-281
9980,-7214,3825,14718,263,-503,-300
9990,-7217,3837,14757,285,-507,-314
10000,-7155,3795,14747,313,-508,-318
10010,-7151,3794,14775,290,-494,-309
10020,-7180,3813,14803,307,-498,-308
10030,-7227,3794,14810,342,-488,-313
10040,-7227,3817,14814,341,-492,-313
10050,-7222,3807,14806,346,-495,-302
10060,-7199,3793,14773,343,-485,-292
10070,-7207,3825,14773,363,-466,-293
10080,-7250,3839,14773,370,-451,-289
10090,-7261,3839,14783,362,-446,-296
10100,-7199,3828,14765,356,-420,-304
10110,-7171,3831,14751,342,-392,-310
10120,-7182,3858,14768,360,-372,-315
10130,-7204,3880,14741,370,-366,-311
10140,-7284,3851,14762,347,-384,-319
10150,-7222,3843,14754,367,-431,-339
10160,-7247,3847,14759,327,-466,-323
10170,-7239,3833,14793,326,-478,-309
10180,-7200,3844,14769,325,-476,-312
10190,-7222,3825,14776,332,-467,-316
10200,-7239,3830,14784,348,-444,-320
10210,-7236,3841,14768,340,-442,-316
10220,-7232,3834,14776,327,-435,-314
10230,-7246,3821,14758,330,-426,-328
10240,-7217,3805,14761,334,-426,-329
10250,-7223,3805,14772,335,-436,-330
10260,-7246,3800,14777,354,-429,-307
10270,-7266,3799,14779,362,-437,-321
10280,-7248,3812,14782,348,-443,-310
10290,-7231,3816,14745,347,-450,-314
10300,-7252,3821,14772,333,-439,-320
10310,-7248,3824,14743,353,-442,-322
10320,-7227,3842,14760,338,-450,-316
10330,-7218,3843,14771,355,-444,-326
10340,-7232,3832,14764,320,-424,-318
10350,-7226,3847,14798,342,-418,-323
10360,-7237,3848,14782,354,-418,-322
10370,-7226,3862,14773,362,-432,-331
10380,-7234,3837,14775,363,-437,-339
10390,-7222,3864,14770,349,-424,-327
10400,-7227,3843,14764,353,-429,-317
10410,-7250,3846,14753,360,-424,-324
10420,-7253,3838,14750,330,-432,-328
10430,-7266,3826,14753,349,-439,-330
10440,-7242,3833,14760,360,-446,-329
10450,-7248,3831,14760,350,-437,-328
10460,-7238,3834,14774,323,-428,-322
10470,-7242,3829,14784,339,-435,-323
10480,-7248,3833,14779,338,-440,-319
10490,-7230,3815,14800,340,-438,-323
10500,-7231,3834,14773,336,-444,-320
10510,-7231,3824,14770,346,-443,-317
10520,-7221,3822,14773,337,-429,-315
10530,-7249,3817,14757,324,-437,-304
10540,-7244,3823,14754,342,-435,-321
10550,-7234,3815,14764,348,-427,-321
10560,-7258,3827,14752,359,-419,-315
10570,-7268,3833,14764,350,-425,-330
10580,-7273,3835,14756,361,-419,-332
10590,-7256,3845,14783,346,-418,-314
10600,-7259,3852,14776,348,-419,-322
10610,-7283,3851,14766,358,-424,-327
10620,-7269,3855,14753,370,-446,-323
10630,-7223,3825,14751,372,-463,-314
10640,-7206,3802,14752,357,-462,-322
10650,-7299,3826,14747,324,-413,-303
10660,-7320,3857,14763,347,-439,-297
10670,-7316,3880,14766,359,-458,-300
10680,-7179,3805,14730,323,-487,-297
10690,-7146,3792,14728,329,-467,-313
10700,-7218,3848,14730,354,-429,-331
10710,-7274,3872,14718,355,-405,-339
10720,-7224,3803,14770,333,-411,-349
10730,-7223,3838,14763,341,-415,-337
10740,-7288,3854,14799,354,-431,-317
10750,-7315,3874,14812,344,-460,-303
10760,-7327,3839,14790,345,-512,-302
10770,-7328,3830,14805,340,-513,-302
10780,-7342,3832,14779,338,-520,-309
10790,-7277,3830,14722,303,-572,-288
10800,-7205,3815,14703,293,-591,-302
10810,-7177,3831,14714,297,-559,-287
10820,-7203,3827,14729,298,-511,-324
10830,-7197,3805,14737,299,-500,-320
10840,-7163,3806,14737,298,-496,-318
10850,-7182,3808,14747,286,-492,-320
10860,-7223,3835,14808,306,-486,-297
10870,-7237,3809,14825,312,-486,-293
10880,-7212,3783,14795,349,-476,-297
10890,-7224,3800,14781,340,-477,-298
10900,-7235,3793,14766,366,-471,-308
10910,-7250,3815,14765,365,-462,-300
10920,-7264,3843,14772,361,-459,-310
10930,-7243,3867,14793,343,-439,-317
10940,-7194,3835,14784,350,-443,-312
10950,-7183,3825,14763,364,-378,-314
10960,-7189,3861,14767,376,-378,-321
10970,-7252,3876,14758,376,-374,-340
10980,-7278,3853,14764,361,-408,-321
10990,-7223,3845,14771,375,-442,-318
11000,-7217,3843,14754,347,-451,-334
11010,-7227,3839,14785,339,-467,-334
11020,-7268,3838,14783,330,-477,-311
11030,-7254,3830,14785,314,-482,-317
11040,-7219,3821,14777,330,-480,-310
11050,-7226,3827,14751,327,-478,-315
11060,-7238,3837,14762,333,-465,-301
11070,-7232,3827,14774,316,-464,-310
11080,-7221,3840,14747,342,-459,-325
11090,-7213,3837,14758,338,-456,-328
11100,-7223,3851,14738,322,-448,-331
11110,-7236,3810,14761,327,-474,-311
11120,-7243,3800,14758,319,-465,-308
11130,-7220,3831,14771,325,-462,-308
11140,-7209,3821,14780,333,-454,-310
11150,-7204,3808,14783,335,-450,-307
11160,-7239,3825,14770,324,-435,-321
11170,-7237,3832,14779,324,-429,-320
11180,-7239,3813,14794,318,-438,-324
11190,-7236,3812,14796,331,-439,-323
11200,-7236,3831,14777,359,-443,-319
11210,-7236,3824,14788,372,-444,-321
11220,-7210,3813,14779,376,-441,-303
11230,-7217,3824,14751,361,-424,-297
11240,-7232,3828,14745,347,-434,-321
11250,-7257,3831,14757,356,-433,-308
11260,-7242,3834,14771,352,-442,-311
11270,-7231,3833,14774,345,-440,-318
11280,-7235,3826,14762,364,-441,-330
11290,-7246,3829,14783,358,-443,-320
11300,-7223,3837,14771,345,-441,-317
11310,-7223,3821,14783,331,-443,-312
11320,-7229,3830,14783,338,-434,-310
11330,-7247,3841,14790,352,-434,-315
11340,-7229,3814,14802,358,-426,-319
11350,-7201,3828,14771,341,-407,-328
11360,-7228,3825,14803,385,-388,-343
11370,-7216,3840,14816,369,-382,-326
11380,-7216,3850,14850,396,-359,-324
11390,-7213,3833,14859,416,-334,-328
11400,-7192,3827,14871,455,-272,-330
11410,-7171,3822,14872,483,-234,-327
11420,-7184,3824,14853,525,-207,-328
11430,-7320,3846,14731,598,-169,-337
11440,-7383,3882,14732,586,-210,-323
11450,-7296,3921,14752,573,-263,-295
11460,-7175,3845,14736,542,-231,-299
11470,-7187,3823,14727,555,-147,-320
11480,-7249,3830,14715,564,-77,-313
11490,-7344,3826,14737,579,-31,-325
11500,-7417,3871,14652,623,-72,-347
11510,-7382,3876,14572,590,-106,-361
11520,-7357,3842,14554,576,-142,-373
11530,-7389,3952,14541,539,-170,-369
11540,-7419,3959,14566,512,-207,-382
11550,-7405,3951,14573,486,-248,-380
11560,-7389,3924,14637,457,-309,-358
11570,-7408,3969,14675,460,-333,-318
11580,-7485,4011,14710,450,-334,-323
11590,-7560,3949,14685,428,-409,-301
11600,-7574,3952,14669,425,-433,-291
11610,-7582,3969,14632,390,-479,-279
11620,-7408,3954,14579,355,-574,-280
11630,-7312,3953,14587,329,-565,-276
11640,-7303,3954,14592,305,-537,-285
11650,-7336,3908,14632,296,-504,-306
11660,-7301,3890,14651,283,-512,-298
11670,-7299,3883,14659,292,-517,-305
11680,-7294,3908,14664,287,-521,-308
11690,-7380,3935,14695,301,-507,-317
11700,-7404,3942,14694,290,-512,-319
11710,-7389,3925,14684,309,-517,-306
11720,-7365,3916,14691,321,-532,-315
11730,-7371,3893,14676,329,-538,-293
11740,-7398,3890,14679,351,-522,-305
11750,-7375,3917,14679,343,-511,-289
11760,-7340,3911,14666,337,-503,-302
11770,-7349,3891,14660,349,-490,-303
11780,-7325,3883,14647,346,-485,-303
11790,-7339,3951,14664,363,-471,-300
11800,-7390,3934,14657,351,-468,-310
11810,-7396,3949,14663,313,-473,-303
11820,-7320,3943,14681,303,-530,-305
11830,-7320,3945,14673,292,-537,-317
11840,-7365,3943,14666,304,-531,-323
11850,-7392,3955,14667,278,-534,-302
11860,-7382,3944,14682,280,-566,-309
11870,-7331,3952,14667,283,-583,-301
11880,-7303,3929,14691,259,-581,-294
11890,-7293,3917,14693,263,-568,-301
11900,-7298,3934,14690,259,-554,-312
11910,-7306,3913,14713,258,-535,-324
11920,-7283,3911,14697,261,-532,-333
11930,-7290,3919,14693,249,-525,-326
11940,-7292,3930,14708,259,-535,-322
11950,-7329,3914,14702,269,-544,-321
11960,-7337,3903,14683,250,-543,-312
11970,-7328,3894,14698,241,-537,-305
11980,-7298,3889,14713,253,-557,-305
11990,-7286,3888,14715,276,-544,-305
12000,-7291,3880,14743,280,-539,-315
12010,-7273,3862,14707,263,-530,-319
12020,-7264,3875,14720,288,-493,-326
12030,-7292,3885,14731,285,-480,-330
12040,-7273,3869,14735,290,-492,-315
12050,-7278,3880,14743,306,-474,-314
12060,-7266,3888,14743,287,-475,-314
12070,-7293,3880,14727,315,-486,-310
12080,-7294,3892,14726,319,-483,-320
12090,-7304,3890,14731,320,-476,-310
12100,-7298,3879,14716,327,-479,-313
12110,-7292,3888,14729,302,-470,-310
12120,-7302,3887,14728,324,-496,-326
12130,-7289,3889,14742,314,-485,-314
12140,-7284,3876,14733,298,-501,-323
12150,-7244,3871,14738,302,-495,-319
12160,-7260,3863,14727,277,-483,-299
12170,-7266,3869,14744,312,-472,-322
12180,-7256,3881,14764,305,-435,-308
12190,-7280,3879,14752,300,-432,-314
12200,-7295,3883,14760,319,-438,-314
12210,-7311,3869,14734,325,-437,-322
12220,-7307,3869,14725,339,-457,-312
12230,-7284,3864,14716,308,-468,-301
12240,-7266,3839,14726,308,-470,-316
12250,-7278,3848,14720,322,-464,-314
12260,-7300,3843,14727,314,-465,-306
12270,-7322,3879,14765,315,-462,-312
12280,-7291,3894,14711,332,-476,-310
12290,-7225,3844,14724,324,-504,-324
12300,-7200,3845,14714,320,-479,-324
12310,-7260,3878,14706,329,-440,-317
12320,-7259,3894,14708,322,-412,-320
12330,-7277,3859,14748,350,-441,-342
12340,-7293,3889,14778,326,-442,-324
12350,-7331,3915,14803,326,-463,-316
12360,-7345,3915,14794,332,-504,-297
12370,-7316,3885,14781,322,-513,-304
12380,-7319,3891,14770,317,-537,-310
12390,-7332,3877,14736,317,-542,-307
12400,-7272,3867,14685,306,-569,-303
12410,-7235,3870,14682,283,-569,-298
12420,-7222,3867,14675,261,-563,-295
12430,-7218,3862,14688,255,-542,-302
12440,-7219,3845,14712,261,-514,-321
12450,-7205,3840,14720,271,-523,-312
12460,-7199,3820,14770,274,-523,-309
12470,-7239,3828,14803,284,-509,-315
12480,-7236,3834,14801,291,-516,-309
12490,-7261,3812,14835,301,-504,-305
12500,-7245,3822,14797,332,-508,-306
12510,-7229,3825,14774,343,-498,-288
12520,-7229,3846,14762,349,-494,-292
12530,-7234,3845,14749,340,-480,-287
12540,-7193,3839,14760,356,-441,-290
12550,-7224,3831,14732,365,-412,-303
12560,-7180,3842,14742,367,-391,-303
12570,-7263,3883,14763,394,-378,-325
12580,-7300,3882,14743,386,-379,-331
12590,-7306,3884,14750,379,-405,-335
12600,-7214,3876,14768,360,-441,-335
12610,-7204,3884,14762,353,-441,-342
12620,-7253,3895,14750,340,-444,-336
12630,-7273,3888,14760,343,-443,-330
12640,-7247,3874,14750,338,-470,-323
12650,-7251,3876,14753,326,-454,-313
12660,-7249,3863,14765,332,-462,-321
12670,-7237,3856,14740,320,-453,-324
12680,-7246,3857,14750,323,-457,-318
12690,-7259,3844,14746,328,-452,-326
12700,-7242,3846,14746,333,-445,-326
12710,-7250,3843,14751,336,-451,-328
12720,-7250,3847,14754,315,-452,-330
12730,-7252,3822,14775,318,-447,-307
12740,-7255,3828,14788,350,-455,-308
12750,-7257,3821,14779,325,-462,-311
12760,-7256,3841,14765,331,-449,-296
12770,-7256,3828,14758,340,-455,-308
12780,-7241,3836,14745,367,-464,-309
12790,-7234,3845,14761,331,-459,-300
12800,-7234,3841,14747,332,-453,-316
12810,-7235,3874,14762,340,-430,-321
12820,-7252,3863,14767,347,-434,-315
12830,-7251,3857,14759,348,-434,-311
12840,-7238,3857,14744,350,-438,-319
12850,-7249,3863,14753,374,-445,-319
12860,-7260,3854,14778,353,-446,-316
12870,-7237,3869,14742,338,-442,-306
12880,-7261,3868,14754,332,-431,-313
12890,-7250,3854,14757,347,-445,-326
12900,-7264,3859,14748,334,-437,-317
12910,-7251,3858,14752,333,-424,-317
12920,-7248,3858,14738,352,-446,-332
12930,-7266,3854,14740,333,-445,-327
12940,-7249,3864,14734,322,-438,-316
12950,-7257,3856,14756,337,-456,-333
12960,-7253,3848,14740,309,-446,-327
12970,-7242,3832,14765,336,-448,-318
12980,-7246,3835,14753,339,-439,-317
12990,-7257,3841,14758,337,-445,-332
13000,-7260,3838,14763,317,-435,-331
13010,-7254,3841,14766,331,-439,-321
13020,-7257,3845,14775,356,-460,-322
13030,-7235,3832,14743,346,-461,-311
13040,-7243,3838,14757,342,-454,-301
13050,-7269,3821,14732,360,-457,-317
13060,-7319,3844,14743,341,-441,-299
13070,-7315,3874,14747,353,-466,-296
13080,-7294,3892,14746,341,-470,-300
13090,-7221,3857,14745,330,-481,-302
13100,-7155,3852,14724,340,-459,-322
13110,-7226,3870,14716,339,-427,-323
13120,-7286,3891,14725,337,-406,-324
13130,-7218,3857,14778,351,-418,-337
13140,-7249,3868,14761,328,-425,-325
13150,-7284,3897,14782,343,-436,-324
13160,-7344,3898,14788,316,-505,-302
13170,-7319,3879,14791,329,-529,-301
13180,-7312,3849,14784,343,-545,-303
13190,-7318,3845,14767,329,-544,-302
13200,-7262,3848,14717,308,-578,-291
13210,-7201,3837,14714,286,-562,-282
13220,-7213,3813,14698,276,-524,-291
13230,-7209,3833,14741,272,-498,-305
13240,-7204,3826,14713,270,-487,-307
13250,-7176,3798,14733,292,-494,-316
13260,-7182,3817,14785,304,-499,-324
13270,-7212,3835,14808,288,-470,-310
13280,-7224,3826,14823,331,-485,-313
13290,-7230,3835,14803,349,-488,-309
13300,-7223,3839,14792,330,-482,-302
13310,-7217,3836,14774,347,-487,-292
13320,-7216,3842,14776,354,-475,-298
13330,-7244,3844,14770,372,-455,-307
13340,-7237,3859,14768,353,-441,-312
13350,-7166,3838,14756,359,-442,-308
13360,-7180,3832,14763,379,-400,-322
13370,-7192,3899,14768,366,-386,-324
13380,-7266,3876,14753,377,-377,-329
13390,-7238,3852,14746,371,-425,-336
13400,-7205,3858,14749,366,-441,-342
13410,-7213,3862,14768,373,-442,-334
13420,-7222,3876,14763,363,-441,-330
13430,-7247,3854,14763,326,-461,-334
13440,-7246,3878,14775,330,-468,-319
13450,-7200,3853,14757,351,-473,-319
13460,-7235,3846,14774,328,-462,-326
13470,-7248,3846,14772,356,-461,-329
13480,-7244,3832,14769,350,-453,-319
13490,-7237,3841,14755,315,-443,-324
13500,-7223,3835,14754,327,-446,-324
13510,-7212,3828,14767,326,-442,-338
13520,-7239,3821,14774,365,-438,-333
13530,-7236,3818,14779,353,-431,-316
13540,-7242,3827,14773,364,-444,-322
13550,-7255,3859,14761,369,-442,-310
13560,-7245,3833,14763,349,-452,-311
13570,-7243,3827,14758,362,-454,-317
13580,-7237,3825,14751,350,-442,-322
13590,-7249,3847,14757,330,-449,-315
13600,-7227,3847,14762,355,-454,-330
13610,-7215,3845,14764,334,-452,-324
13620,-7220,3858,14765,361,-447,-329
13630,-7218,3865,14766,352,-448,-321
13640,-7217,3866,14767,338,-441,-330
13650,-7238,3849,14762,364,-430,-313
13660,-7237,3842,14774,364,-435,-319
13670,-7242,3840,14756,362,-443,-312
13680,-7251,3853,14762,348,-445,-325
13690,-7241,3850,14738,336,-436,-311
13700,-7249,3851,14749,347,-433,-303
13710,-7235,3854,14751,342,-446,-311
13720,-7243,3857,14757,339,-436,-334
13730,-7269,3845,14763,330,-439,-323
13740,-7251,3853,14758,323,-443,-324
13750,-7244,3843,14748,324,-451,-317
13760,-7234,3828,14758,322,-452,-320
13770,-7233,3857,14758,331,-453,-325
13780,-7231,3847,14763,343,-457,-323
13790,-7239,3855,14743,306,-434,-318
13800,-7216,3836,14749,326,-444,-328
13810,-7235,3855,14773,331,-451,-328
13820,-7246,3856,14757,330,-441,-318
13830,-7246,3851,14755,349,-452,-328
13840,-7256,3870,14768,359,-457,-330
13850,-7276,3843,14773,355,-446,-310
13860,-7273,3833,14760,351,-464,-319
13870,-7257,3854,14766,333,-463,-309
13880,-7228,3818,14752,343,-485,-320
13890,-7260,3835,14728,343,-466,-314
13900,-7310,3817,14748,323,-450,-308
13910,-7284,3888,14743,329,-485,-301
13920,-7227,3843,14740,309,-513,-310
13930,-7138,3810,14744,306,-517,-304
13940,-7192,3876,14728,353,-463,-326
13950,-7253,3891,14730,330,-427,-342
13960,-7256,3853,14760,317,-429,-336
13970,-7299,3883,14814,297,-558,-306
13980,-7305,3885,14792,327,-558,-301
13990,-7307,3848,14798,301,-559,-299
14000,-7272,3827,14774,311,-569,-298
14010,-7252,3821,14723,304,-571,-292
14020,-7205,3817,14724,280,-582,-297
14030,-7179,3831,14756,252,-565,-274
14040,-7159,3814,14771,246,-524,-296
14050,-7132,3802,14739,259,-514,-312
14060,-7134,3782,14756,272,-511,-322
14070,-7141,3790,14790,288,-504,-309
14080,-7199,3797,14819,278,-487,-300
14090,-7207,3803,14845,309,-484,-310
14100,-7194,3810,14830,318,-495,-296
14110,-7194,3798,14835,340,-499,-297
14120,-7191,3801,14783,350,-479,-296
14130,-7204,3814,14786,341,-465,-300
14140,-7217,3824,14761,351,-446,-307
14150,-7195,3823,14784,344,-438,-304
14160,-7170,3810,14760,353,-426,-321
14170,-7145,3819,14776,354,-394,-317
14180,-7222,3877,14794,378,-376,-314
14190,-7278,3882,14795,390,-396,-331
14200,-7204,3853,14777,362,-420,-322
14210,-7174,3847,14781,346,-440,-322
14220,-7200,3862,14797,357,-444,-320
14230,-7216,3859,14818,340,-449,-319
14240,-7204,3841,14781,338,-460,-310
14250,-7186,3842,14773,344,-460,-318
14260,-7183,3847,14772,306,-462,-317
14270,-7176,3835,14777,327,-447,-309
14280,-7204,3831,14783,336,-442,-325
14290,-7214,3833,14772,352,-444,-335
14300,-7218,3829,14776,322,-441,-325
14310,-7190,3808,14767,333,-441,-332
14320,-7190,3801,14780,350,-446,-325
14330,-7206,3812,14785,322,-428,-310
14340,-7223,3813,14771,343,-440,-323
14350,-7212,3814,14800,343,-445,-305
14360,-7224,3805,14806,313,-452,-307
14370,-7196,3797,14783,346,-447,-317
14380,-7210,3811,14766,330,-439,-306
14390,-7214,3828,14787,343,-446,-314
14400,-7212,3834,14771,335,-459,-317
14410,-7197,3836,14774,328,-449,-312
14420,-7191,3842,14788,340,-445,-316
14430,-7183,3838,14791,322,-433,-319
14440,-7200,3834,14773,340,-436,-325
14450,-7195,3838,14789,325,-430,-320
14460,-7234,3834,14764,331,-429,-318
14470,-7200,3833,14775,324,-443,-311
14480,-7213,3830,14768,342,-455,-328
14490,-7224,3838,14786,338,-451,-324
14500,-7232,3822,14763,329,-452,-332
14510,-7201,3837,14775,318,-452,-326
14520,-7205,3832,14765,347,-452,-332
14530,-7198,3841,14777,323,-448,-336
14540,-7202,3835,14772,346,-434,-315
14550,-7194,3816,14800,315,-429,-318
14560,-7200,3811,14795,316,-440,-321
14570,-7208,3812,14780,342,-438,-328
14580,-7210,3807,14792,335,-445,-319
14590,-7197,3820,14785,345,-429,-323
14600,-7198,3809,14779,352,-429,-322
14610,-7215,3805,14786,346,-418,-324
14620,-7221,3813,14780,362,-426,-327
14630,-7220,3833,14749,357,-417,-332
14640,-7233,3826,14793,371,-417,-327
14650,-7252,3817,14781,386,-430,-339
14660,-7248,3837,14791,355,-428,-329
14670,-7225,3815,14784,365,-453,-326
14680,-7215,3819,14771,358,-445,-315
14690,-7188,3830,14760,360,-445,-314
14700,-7232,3814,14778,331,-431,-309
14710,-7266,3816,14771,350,-439,-308
14720,-7265,3843,14781,354,-450,-299
14730,-7194,3819,14772,353,-468,-307
14740,-7133,3809,14760,334,-463,-314
14750,-7130,3820,14755,332,-432,-312
14760,-7246,3859,14768,336,-384,-333
14770,-7228,3826,14767,364,-392,-351
14780,-7194,3835,14775,370,-402,-340
14790,-7219,3839,14784,340,-396,-327
14800,-7262,3858,14847,349,-449,-309
14810,-7278,3848,14793,359,-480,-311
14820,-7308,3842,14786,357,-497,-304
14830,-7314,3830,14761,330,-520,-297
14840,-7283,3822,14747,326,-535,-293
14850,-7242,3826,14731,303,-562,-289
14860,-7187,3837,14711,302,-551,-288
14870,-7170,3836,14772,295,-487,-306
14880,-7171,3828,14772,315,-486,-322
14890,-7161,3821,14746,305,-475,-321
14900,-7152,3795,14768,334,-462,-319
14910,-7162,3815,14796,337,-453,-305
14920,-7200,3814,14812,356,-464,-307
14930,-7211,3820,14791,358,-465,-286
14940,-7208,3806,14777,350,-458,-291
14950,-7216,3828,14777,357,-445,-294
14960,-7237,3864,14770,370,-432,-305
14970,-7182,3839,14776,356,-423,-314
14980,-7161,3820,14753,364,-398,-308
14990,-7176,3822,14766,383,-377,-310
15000,-7244,3874,14757,371,-362,-325
15010,-7281,3851,14756,379,-377,-326
15020,-7245,3847,14763,359,-421,-337
15030,-7163,3851,14773,360,-443,-332
15040,-7202,3864,14780,348,-428,-326
15050,-7246,3860,14795,333,-442,-320
15060,-7255,3865,14781,350,-457,-327
15070,-7209,3844,14770,343,-476,-332
15080,-7215,3840,14760,317,-452,-307
15090,-7242,3821,14764,336,-456,-327
15100,-7241,3848,14756,320,-463,-329
15110,-7233,3843,14753,319,-454,-324
15120,-7230,3828,14739,327,-462,-321
15130,-7197,3805,14760,349,-456,-325
15140,-7199,3817,14769,347,-441,-323
15150,-7201,3803,14790,344,-432,-327
15160,-7232,3824,14777,361,-440,-319
15170,-7233,3833,14784,356,-443,-315
15180,-7225,3834,14779,339,-444,-316
15190,-7217,3820,14774,340,-446,-320
15200,-7238,3824,14752,329,-437,-316
15210,-7240,3818,14750,344,-441,-304
15220,-7237,3842,14756,341,-436,-326
15230,-7229,3848,14777,320,-445,-321
15240,-7209,3846,14755,345,-444,-331
15250,-7204,3833,14768,330,-444,-338
15260,-7209,3854,14778,334,-435,-304
15270,-7208,3854,14776,333,-424,-305
15280,-7225,3857,14781,331,-429,-310
15290,-7217,3854,14772,333,-431,-319
15300,-7231,3844,14788,333,-434,-303
15310,-7222,3832,14776,314,-426,-301
15320,-7215,3837,14762,319,-438,-306
15330,-7226,3836,14750,332,-427,-316
15340,-7223,3841,14760,325,-433,-320
15350,-7251,3835,14766,326,-433,-330
15360,-7230,3836,14775,314,-435,-319
15370,-7227,3832,14787,321,-445,-316
15380,-7218,3836,14786,344,-451,-324
15390,-7221,3821,14770,338,-448,-303
15400,-7229,3822,14772,340,-448,-312
15410,-7234,3821,14763,339,-446,-312
15420,-7211,3810,14764,347,-442,-318
15430,-7231,3841,14757,355,-448,-317
15440,-7236,3839,14771,339,-436,-317
15450,-7229,3833,14783,360,-440,-321
15460,-7233,3846,14774,323,-427,-312
15470,-7224,3865,14764,336,-441,-316
15480,-7231,3854,14772,327,-428,-316
15490,-7215,3842,14767,352,-423,-308
15500,-7233,3846,14784,344,-423,-312
15510,-7230,3840,14752,337,-431,-306
15520,-7227,3840,14768,328,-446,-301
15530,-7204,3820,14748,352,-442,-316
15540,-7236,3807,14731,352,-433,-307
15550,-7282,3841,14757,318,-434,-289
15560,-7280,3864,14766,348,-447,-295
15570,-7235,3844,14745,351,-480,-307
15580,-7165,3826,14753,327,-487,-305
15590,-7149,3798,14735,335,-464,-318
15600,-7262,3857,14722,356,-424,-351
15610,-7228,3829,14751,342,-413,-348
15620,-7199,3825,14780,342,-418,-338
15630,-7240,3863,14810,348,-431,-327
15640,-7273,3875,14837,340,-461,-321
15650,-7294,3859,14800,333,-477,-298
15660,-7292,3854,14807,330,-526,-300
15670,-7316,3840,14783,339,-535,-308
15680,-7304,3835,14758,336,-538,-294
15690,-7212,3831,14718,300,-552,-288
15700,-7188,3832,14722,272,-533,-278
15710,-7213,3830,14743,263,-517,-280
15720,-7176,3809,14741,283,-516,-314
15730,-7151,3815,14744,285,-498,-311
15740,-7147,3804,14790,286,-496,-304
15750,-7171,3799,14797,303,-488,-303
15760,-7219,3836,14819,326,-473,-306
15770,-7220,3810,14835,330,-475,-314
15780,-7207,3804,14810,337,-476,-297
15790,-7196,3803,14767,346,-472,-291
15800,-7196,3794,14786,352,-461,-296
15810,-7214,3819,14786,362,-457,-306
15820,-7248,3825,14799,368,-435,-304
15830,-7195,3851,14782,344,-433,-304
15840,-7175,3833,14774,384,-437,-319
15850,-7167,3827,14760,385,-408,-328
15860,-7161,3860,14799,379,-380,-330
15870,-7159,3830,14773,346,-432,-328
15880,-7236,3857,14779,368,-432,-315
15890,-7256,3844,14784,327,-446,-319
15900,-7257,3848,14767,347,-463,-319
15910,-7209,3826,14764,347,-467,-319
15920,-7223,3848,14767,342,-460,-318
15930,-7239,3842,14769,335,-448,-306
15940,-7229,3845,14780,334,-453,-309
15950,-7204,3836,14766,341,-461,-335
15960,-7204,3819,14757,349,-446,-326
15970,-7202,3826,14766,336,-438,-325
15980,-7206,3796,14748,346,-445,-330
15990,-7217,3803,14767,338,-430,-312
16000,-7241,3829,14789,333,-431,-294
16010,-7235,3823,14802,355,-446,-322
16020,-7224,3818,14751,370,-465,-321
16030,-7217,3829,14772,348,-462,-312
16040,-7231,3829,14751,366,-466,-315
16050,-7232,3834,14750,324,-441,-310
16060,-7222,3838,14770,326,-453,-319
16070,-7208,3838,14773,331,-438,-312
16080,-7223,3869,14756,332,-445,-316
16090,-7205,3839,14772,341,-420,-316
16100,-7198,3836,14777,348,-427,-318
16110,-7221,3858,14764,357,-429,-308
16120,-7212,3864,14780,335,-439,-315
16130,-7224,3854,14775,333,-441,-313
16140,-7219,3844,14771,340,-448,-316
16150,-7235,3843,14750,367,-442,-324
16160,-7239,3826,14753,341,-435,-309
16170,-7217,3846,14764,323,-438,-304
16180,-7208,3848,14769,330,-443,-310
16190,-7209,3845,14755,345,-436,-319
16200,-7223,3851,14743,317,-432,-317
16210,-7226,3829,14777,316,-434,-309
16220,-7224,3822,14784,324,-440,-323
16230,-7219,3830,14752,317,-445,-315
16240,-7211,3822,14753,329,-436,-309
16250,-7220,3819,14759,321,-436,-314
16260,-7221,3830,14763,344,-436,-313
16270,-7237,3816,14775,344,-448,-312
16280,-7213,3826,14777,352,-428,-324
16290,-7225,3837,14771,349,-440,-323
16300,-7243,3842,14751,377,-440,-324
16310,-7244,3840,14762,366,-448,-324
16320,-7216,3842,14780,350,-436,-311
16330,-7228,3866,14793,328,-439,-309
16340,-7216,3850,14785,360,-441,-320
16350,-7241,3859,14788,386,-437,-311
16360,-7233,3859,14768,373,-447,-320
16370,-7241,3824,14774,385,-447,-306
16380,-7210,3832,14767,360,-433,-299
16390,-7195,3838,14749,355,-444,-305
16400,-7236,3813,14749,360,-425,-310
16410,-7268,3869,14759,329,-434,-295
16420,-7293,3898,14746,341,-428,-292
16430,-7253,3881,14753,346,-443,-298
16440,-7130,3837,14729,337,-455,-324
16450,-7172,3879,14731,328,-427,-329
16460,-7234,3893,14720,326,-392,-343
16470,-7257,3881,14758,319,-394,-362
16480,-7199,3853,14781,309,-417,-348
16490,-7216,3877,14790,316,-439,-353
16500,-7238,3888,14805,315,-463,-340
16510,-7317,3864,14785,337,-468,-333
16520,-7330,3837,14795,317,-505,-323
16530,-7340,3827,14793,313,-510,-316
16540,-7349,3824,14768,323,-530,-312
16550,-7240,3821,14711,285,-574,-302
16560,-7189,3816,14738,270,-554,-301
16570,-7184,3787,14755,261,-523,-306
16580,-7194,3791,14764,307,-490,-327
16590,-7159,3783,14778,302,-470,-321
16600,-7107,3764,14778,343,-452,-319
16610,-7140,3798,14844,346,-421,-317
16620,-7185,3816,14877,364,-399,-319
16630,-7182,3813,14878,420,-390,-301
16640,-7140,3793,14897,471,-359,-327
16650,-7140,3797,14943,493,-320,-316
16660,-7177,3827,14914,520,-261,-311
16670,-7208,3831,14839,538,-226,-310
16680,-7280,3867,14787,591,-219,-321
16690,-7255,3892,14713,607,-227,-313
16700,-7182,3871,14695,635,-250,-327
16710,-7236,3865,14596,600,-195,-335
16720,-7261,3931,14621,568,-189,-331
16730,-7371,3948,14670,538,-174,-327
16740,-7656,4040,14646,457,-260,-309
16750,-7700,4028,14634,330,-347,-291
16760,-7582,4014,14748,250,-473,-262
16770,-7461,4017,14852,185,-519,-235
16780,-7695,4020,14958,131,-426,-262
16790,-7806,3971,14864,136,-500,-285
16800,-7478,3961,14528,152,-500,-260
16810,-6967,3938,14073,32,-380,-286
16820,-7613,3683,14987,-256,4,-262
16830,-7878,3782,14955,-197,-216,-211
16840,-7869,3737,14673,-78,-697,-171
16850,-7727,3659,14654,-40,-838,-165
16860,-7383,3642,14695,27,-1072,-160
16870,-7108,3663,14540,84,-1150,-157
16880,-6757,3654,14907,162,-1211,-202
16890,-6786,3699,15029,285,-1116,-222
16900,-6804,3786,15069,400,-1007,-239
16910,-6949,3826,15089,440,-900,-243
16920,-6986,3833,15019,467,-756,-263
16930,-6992,3773,14974,469,-671,-257
16940,-7052,3757,14942,451,-603,-250
16950,-7160,3746,14845,466,-539,-223
16960,-7220,3727,14762,474,-526,-220
16970,-7265,3699,14669,479,-549,-243
16980,-7303,3742,14671,491,-535,-271
16990,-7286,3758,14702,464,-504,-287
17000,-7305,3770,14770,442,-511,-285
17010,-7229,4075,14770,426,-519,-273
17020,-7099,3840,14815,373,-492,-252
17030,-7101,3831,14937,337,-457,-262
17040,-7156,3830,14986,340,-411,-262
17050,-7151,3844,14755,389,-488,-254
17060,-7069,3854,14660,351,-524,-246
17070,-7030,3862,14707,299,-477,-272
17080,-7093,3865,14778,314,-436,-277
17090,-7194,3903,14779,332,-442,-291
17100,-7337,3908,14799,310,-532,-295
17110,-7336,3896,14836,267,-591,-289
17120,-7259,3866,14861,256,-655,-297
17130,-7113,3844,14889,242,-705,-287
17140,-7050,3859,14872,236,-693,-293
17150,-7010,3842,14819,247,-658,-304
17160,-6871,3760,14844,252,-600,-314
17170,-6891,3714,14866,271,-479,-303
17180,-6928,3701,14862,293,-412,-291
17190,-7013,3713,14885,317,-398,-287
17200,-7103,3744,14916,381,-443,-275
17210,-7143,3753,14886,396,-429,-270
17220,-7171,3777,14859,415,-428,-282
17230,-7207,3754,14794,410,-453,-305
17240,-7228,3765,14825,403,-468,-291
17250,-7230,3765,14807,419,-482,-296
17260,-7219,3798,14771,414,-501,-279
17270,-7041,3807,14823,386,-539,-284
17280,-6996,3812,14811,354,-474,-298
17290,-7067,3829,14836,334,-376,-299
17300,-7068,3842,14843,348,-391,-305
17310,-7058,3858,14815,303,-425,-296
17320,-7070,3837,14804,249,-498,-287
17330,-7080,3842,14786,220,-551,-302
17340,-7105,3882,14777,192,-534,-279
17350,-7155,3899,14822,206,-512,-276
17360,-7309,3927,14895,224,-513,-292
17370,-7346,3896,14889,226,-554,-293
17380,-7295,3851,14840,245,-635,-282
17390,-7076,3830,14777,230,-727,-252
17400,-6986,3835,14804,224,-727,-266
17410,-6939,3804,14850,217,-676,-271
17420,-6929,3750,14870,192,-601,-276
17430,-6936,3757,14888,209,-580,-290
17440,-6935,3730,14916,247,-562,-300
17450,-6958,3705,14967,269,-541,-290
17460,-7003,3725,14940,307,-512,-291
17470,-7047,3725,14901,298,-481,-292
17480,-7089,3703,14846,305,-476,-304
17490,-7022,3688,14846,319,-466,-303
17500,-7011,3706,14881,333,-426,-304
17510,-7042,3757,14887,324,-396,-305
17520,-7167,3759,14885,332,-382,-290
17530,-7132,3753,14888,338,-405,-286
17540,-7060,3813,14794,362,-462,-278
17550,-7023,3813,14804,345,-474,-291
17560,-7014,3806,14858,383,-461,-300
17570,-7039,3834,14867,381,-473,-305
17580,-7012,3833,14877,395,-519,-309
17590,-6999,3831,14871,391,-539,-314
17600,-7000,3852,14898,383,-531,-313
17610,-6975,3836,14874,324,-481,-318
17620,-7019,3827,14905,304,-440,-338
17630,-7074,3816,14910,316,-416,-319
17640,-7002,3780,14822,269,-464,-310
17650,-6944,3772,14841,257,-436,-308
17660,-6979,3784,14877,257,-406,-309
17670,-7116,3772,14873,261,-364,-306
17680,-7143,3768,14872,244,-380,-306
17690,-7152,3762,14855,248,-405,-307
17700,-7119,3751,14871,283,-461,-304
17710,-7085,3745,14864,280,-503,-292
17720,-7100,3746,14840,320,-526,-310
17730,-7091,3761,14868,367,-532,-316
17740,-7049,3764,14869,379,-562,-326
17750,-7013,3731,14898,377,-552,-313
17760,-6982,3754,14875,378,-545,-308
17770,-6984,3787,14975,459,-458,-336
17780,-7014,3825,14971,480,-462,-332
17790,-6953,3761,14906,439,-476,-326
17800,-6942,3780,14794,438,-439,-333
17810,-6969,3789,14849,384,-384,-316
17820,-7119,3759,14810,348,-353,-312
17830,-7153,3782,14812,334,-399,-300
17840,-7094,3763,14797,324,-438,-297
17850,-7089,3788,14852,309,-445,-301
17860,-7110,3789,14838,322,-448,-320
17870,-7153,3789,14808,269,-447,-317
17880,-7104,3782,14794,251,-450,-318
17890,-7015,3803,14871,214,-431,-305
17900,-7037,3795,14874,224,-438,-304
17910,-7019,3778,14889,242,-461,-297
17920,-6973,3769,14893,273,-485,-288
17930,-6963,3747,14875,271,-449,-287
17940,-7027,3765,14929,287,-432,-298
17950,-7035,3776,14961,304,-484,-299
17960,-7005,3778,14939,303,-504,-278
17970,-7002,3777,14916,321,-516,-290
17980,-7022,3759,14816,349,-475,-306
17990,-6984,3779,14824,327,-501,-294
18000,-7002,3775,14870,315,-463,-307
18010,-7045,3793,14862,356,-445,-304
18020,-7056,3800,14843,333,-458,-297
18030,-7016,3797,14879,350,-490,-301
18040,-6972,3760,14901,349,-483,-300
18050,-7052,3782,14907,372,-448,-316
18060,-7056,3757,14921,378,-450,-329
18070,-7067,3769,14865,358,-447,-325
18080,-7013,3815,14826,301,-434,-311
18090,-6975,3784,14878,278,-401,-308
18100,-6940,3754,14868,275,-411,-320
18110,-6960,3768,14833,299,-400,-330
18120,-7105,3792,14898,233,-357,-331
18130,-7148,3787,14878,217,-363,-333
18140,-7093,3762,14843,197,-400,-327
18150,-7010,3720,14822,183,-438,-282
18160,-7021,3726,14786,223,-440,-290
18170,-7051,3743,14782,206,-430,-286
18180,-7091,3760,14847,220,-469,-282
18190,-7260,3800,14950,277,-524,-284
18200,-7246,3770,14954,283,-621,-290
18210,-7157,3750,14866,270,-687,-287
18220,-6920,3752,14929,307,-755,-285
18230,-6844,3749,15034,341,-718,-308
18240,-6804,3765,15079,424,-672,-307
18250,-6796,3749,15116,560,-612,-329
18260,-6821,3757,15162,640,-575,-345
18270,-6829,3756,15167,737,-543,-351
18280,-6831,3746,15175,890,-461,-344
18290,-6835,3733,15150,982,-415,-348
18300,-6843,3778,15049,1047,-343,-349
18310,-6884,3821,14947,1060,-227,-346
18320,-6929,3839,14899,1042,-206,-363
18330,-6980,3854,14778,1029,-187,-380
18340,-6974,3893,14580,890,-190,-418
18350,-6983,3915,14628,835,-148,-444
18360,-7082,3924,14695,813,-51,-456
18370,-7159,3932,14684,800,-26,-466
18380,-7203,3941,14712,757,-107,-403
18390,-7191,3942,14741,731,-98,-361
18400,-7146,3966,14790,678,-88,-340
18410,-7184,4020,14710,633,-175,-356
18420,-7148,3974,14724,604,-212,-360
18430,-7119,3917,14870,551,-247,-367
18440,-7113,3898,14949,563,-226,-365
18450,-7156,3979,14886,659,-237,-379
18460,-7168,4016,14823,620,-239,-377
18470,-7120,4061,14779,609,-244,-363
18480,-7165,4059,14665,528,-239,-388
18490,-7192,4041,14636,505,-280,-397
18500,-7199,4042,14671,462,-350,-402
18510,-7165,4048,14677,437,-381,-386
18520,-7168,4029,14667,436,-376,-383
18530,-7163,4031,14641,444,-374,-372
18540,-7166,4021,14670,418,-360,-356
18550,-7195,4039,14692,388,-338,-361
18560,-7242,4007,14662,395,-323,-354
18570,-7259,3983,14627,366,-336,-356
18580,-7226,3961,14647,348,-370,-342
18590,-7218,3954,14677,343,-358,-317
18600,-7189,3945,14665,349,-324,-322
18610,-7133,3930,14688,333,-318,-322
18620,-7107,3912,14715,328,-305,-308
18630,-7112,3926,14782,324,-271,-305
18640,-7156,3979,14871,397,-229,-340
18650,-7185,4003,14837,409,-210,-324
18660,-7185,4028,14859,416,-219,-331
18670,-7133,4070,14824,466,-283,-332
18680,-7147,4083,14757,484,-254,-335
18690,-7159,4073,14698,498,-224,-337
18700,-7222,4071,14608,511,-217,-332
18710,-7244,4061,14607,487,-201,-325
18720,-7426,4077,14606,403,-182,-318
18730,-7460,4082,14610,356,-215,-328
18740,-7437,4083,14620,341,-268,-323
18750,-7419,4081,14681,314,-316,-320
18760,-7348,4076,14689,303,-377,-319
18770,-7347,4069,14673,278,-395,-318
18780,-7327,4048,14683,286,-443,-308
18790,-7197,4025,14722,341,-454,-296
18800,-7191,4068,14701,337,-417,-286
18810,-7246,4006,14744,334,-393,-291
18820,-7287,4031,14723,365,-382,-301
18830,-7334,4035,14720,386,-383,-288
18840,-7348,4035,14696,386,-384,-299
18850,-7310,4017,14662,386,-403,-318
18860,-7269,3992,14639,383,-397,-325
18870,-7310,4043,14605,406,-364,-326
18880,-7345,4057,14560,413,-355,-334
18890,-7334,4059,14579,395,-367,-339
18900,-7395,4070,14642,348,-420,-326
18910,-7430,4092,14621,331,-438,-307
18920,-7421,4118,14615,307,-468,-306
18930,-7410,4075,14657,293,-540,-300
18940,-7401,4071,14653,279,-545,-288
18950,-7417,4093,14623,275,-581,-290
18960,-7352,4077,14577,232,-651,-279
18970,-7276,4055,14590,204,-658,-267
18980,-7211,4049,14634,182,-655,-264
18990,-7168,4001,14689,208,-605,-292
19000,-7185,4026,14689,231,-573,-284
19010,-7189,4010,14704,220,-556,-282
19020,-7182,3985,14725,242,-570,-300
19030,-7211,4008,14741,287,-567,-314
19040,-7259,4007,14760,259,-544,-305
19050,-7262,3982,14760,276,-526,-305
19060,-7267,3973,14722,300,-506,-308
19070,-7258,3985,14720,318,-490,-298
19080,-7298,4001,14698,321,-489,-297
19090,-7305,4020,14689,330,-470,-287
19100,-7249,4010,14666,333,-445,-300
19110,-7244,3985,14662,346,-403,-290
19120,-7235,4019,14664,368,-392,-300
19130,-7251,4037,14709,367,-374,-323
19140,-7295,4054,14701,361,-372,-306
19150,-7320,4059,14714,365,-390,-326
19160,-7272,4060,14717,368,-418,-333
19170,-7246,4067,14727,367,-442,-333
19180,-7264,4058,14729,359,-428,-315
19190,-7282,4066,14715,336,-441,-312
19200,-7253,4044,14659,364,-455,-304
19210,-7235,4045,14697,345,-445,-313
19220,-7264,4013,14676,353,-409,-318
19230,-7261,4032,14679,363,-401,-318
19240,-7292,4045,14649,368,-403,-327
19250,-7290,4047,14642,335,-405,-333
19260,-7281,4032,14688,342,-424,-345
19270,-7259,4023,14686,337,-418,-335
19280,-7282,4030,14688,324,-408,-341
19290,-7310,4050,14719,340,-406,-328
19300,-7293,4026,14717,332,-418,-321
19310,-7286,4013,14717,341,-418,-326
19320,-7274,4003,14727,350,-409,-323
19330,-7297,3994,14713,357,-394,-321
19340,-7304,3999,14704,372,-382,-313
19350,-7295,3987,14696,346,-389,-312
19360,-7261,3998,14703,372,-390,-323
19370,-7228,4021,14716,396,-363,-337
19380,-7239,4013,14704,409,-311,-330
19390,-7285,4031,14672,444,-289,-341
19400,-7332,4048,14670,420,-305,-333
19410,-7320,4057,14672,424,-309,-331
19420,-7333,4046,14654,452,-316,-335
19430,-7316,4076,14653,436,-299,-328
19440,-7317,4054,14655,421,-285,-334
19450,-7328,4046,14644,439,-273,-332
19460,-7342,4050,14618,454,-296,-334
19470,-7356,4056,14594,443,-310,-335
19480,-7328,4061,14617,436,-323,-337
19490,-7334,4046,14633,445,-325,-351
19500,-7369,4061,14622,451,-269,-344
19510,-7399,4066,14638,427,-263,-347
19520,-7399,4077,14607,412,-313,-328
19530,-7373,4058,14599,423,-340,-349
19540,-7362,4043,14600,399,-368,-344
19550,-7333,4074,14557,393,-349,-340
19560,-7382,4094,14550,398,-341,-367
19570,-7400,4079,14562,365,-349,-359
19580,-7391,4074,14561,383,-383,-354
19590,-7425,4074,14593,342,-426,-337
19600,-7451,4073,14595,326,-456,-324
19610,-7479,4080,14639,321,-496,-320
19620,-7512,4083,14659,291,-541,-309
19630,-7529,4087,14624,271,-558,-290
19640,-7483,4097,14593,272,-598,-279
19650,-7465,4079,14568,253,-632,-263
19660,-7286,4044,14578,228,-638,-273
19670,-7244,4021,14644,258,-540,-306
19680,-7276,4029,14708,266,-524,-311
19690,-7320,4049,14706,308,-492,-315
19700,-7341,4039,14694,323,-505,-324
19710,-7343,4041,14691,329,-517,-315
19720,-7323,4043,14654,331,-502,-296
19730,-7338,4048,14647,329,-482,-285
19740,-7354,4059,14638,357,-481,-300
19750,-7346,4068,14619,346,-465,-294
19760,-7326,4042,14620,345,-446,-301
19770,-7324,4009,14605,332,-435,-305
19780,-7288,4032,14610,340,-435,-310
19790,-7386,4061,14637,338,-400,-302
19800,-7411,4060,14622,340,-420,-303
19810,-7392,4052,14637,343,-474,-310
19820,-7318,4080,14646,287,-509,-315
19830,-7312,4080,14655,304,-528,-326
19840,-7331,4064,14656,293,-524,-327
19850,-7352,4065,14654,301,-525,-312
19860,-7332,4069,14669,275,-526,-294
19870,-7317,4050,14686,295,-523,-295
19880,-7262,4049,14687,294,-517,-298
19890,-7287,4046,14674,322,-483,-309
19900,-7307,4045,14652,305,-491,-325
19910,-7309,4058,14655,291,-478,-328
19920,-7301,4045,14650,303,-483,-333
19930,-7320,4041,14665,295,-479,-317
19940,-7331,4031,14655,301,-478,-323
19950,-7310,4027,14681,322,-484,-313
19960,-7329,4032,14691,316,-486,-306
19970,-7327,4042,14689,327,-486,-312
19980,-7319,4043,14680,319,-470,-314
19990,-7326,4013,14655,327,-444,-320
20000,-7314,4018,14647,333,-448,-325
20010,-7313,4008,14683,323,-448,-330
20020,-7255,4033,14682,325,-427,-331
20030,-7275,4037,14678,352,-414,-334
20040,-7319,4036,14701,358,-412,-333
20050,-7303,4036,14687,357,-393,-318
20060,-7299,4050,14676,365,-402,-323
20070,-7294,4042,14678,371,-405,-319
20080,-7334,4051,14664,380,-404,-316
20090,-7345,4062,14658,362,-390,-318
20100,-7343,4048,14664,368,-396,-316
20110,-7347,4038,14663,372,-388,-317
20120,-7336,4033,14697,404,-380,-335
20130,-7342,4031,14700,430,-346,-330
20140,-7309,4036,14694,419,-345,-333
20150,-7298,4041,14681,436,-324,-326
20160,-7290,4042,14686,421,-313,-329
20170,-7302,4036,14685,417,-295,-331
20180,-7347,4046,14628,481,-274,-336
20190,-7385,4050,14629,465,-283,-340
20200,-7435,4057,14619,468,-295,-332
20210,-7396,4056,14603,460,-330,-318
20220,-7351,4026,14591,436,-334,-329
20230,-7340,4009,14561,445,-318,-332
20240,-7416,4105,14578,437,-270,-343
20250,-7427,4091,14580,405,-270,-339
20260,-7392,4083,14585,413,-308,-358
20270,-7364,4096,14618,405,-368,-346
20280,-7420,4105,14630,398,-365,-325
20290,-7441,4110,14623,413,-383,-319
20300,-7444,4096,14656,387,-404,-311
20310,-7509,4085,14672,385,-435,-315
20320,-7530,4106,14614,359,-449,-291
20330,-7526,4096,14533,334,-497,-305
20340,-7388,4065,14509,303,-553,-292
20350,-7359,4072,14510,299,-533,-295
20360,-7336,4065,14510,286,-515,-302
20370,-7321,4038,14559,296,-506,-311
20380,-7333,4040,14590,301,-480,-323
20390,-7349,4049,14627,313,-486,-336
20400,-7430,4061,14634,305,-511,-311
20410,-7417,4061,14633,309,-549,-315
20420,-7407,4053,14648,294,-552,-297
20430,-7393,4055,14631,315,-552,-287
20440,-7373,4056,14617,326,-554,-291
20450,-7350,4068,14619,322,-536,-287
20460,-7364,4070,14608,345,-506,-293
20470,-7331,4066,14617,343,-476,-283
20480,-7334,4051,14632,360,-462,-286
20490,-7313,4086,14651,340,-412,-293
20500,-7374,4108,14672,367,-409,-305
20510,-7434,4102,14668,351,-428,-301
20520,-7445,4080,14658,353,-473,-310
20530,-7370,4091,14621,321,-538,-315
20540,-7344,4109,14606,293,-550,-309
20550,-7368,4101,14584,303,-550,-315
20560,-7374,4075,14556,270,-563,-293
20570,-7364,4071,14579,276,-563,-289
20580,-7319,4073,14601,277,-564,-283
20590,-7316,4046,14631,268,-530,-304
20600,-7339,4059,14644,268,-518,-316
20610,-7335,4049,14646,249,-526,-318
20620,-7311,4067,14687,279,-503,-334
20630,-7353,4057,14696,295,-496,-338
20640,-7361,4058,14684,275,-504,-314
20650,-7352,4062,14682,283,-502,-292
20660,-7336,4056,14685,336,-507,-303
20670,-7360,4051,14663,325,-485,-307
20680,-7352,4050,14648,328,-463,-308
20690,-7320,4042,14645,283,-448,-302
20700,-7290,4031,14620,299,-446,-330
20710,-7281,4023,14656,317,-407,-326
20720,-7297,4016,14696,318,-393,-326
20730,-7271,4024,14691,332,-391,-329
20740,-7271,4005,14699,362,-372,-338
20750,-7322,4047,14704,379,-341,-331
20760,-7347,4050,14664,399,-333,-327
20770,-7352,4056,14648,391,-355,-326
20780,-7327,4050,14652,409,-362,-317
20790,-7335,4051,14654,409,-359,-323
20800,-7367,4062,14646,401,-331,-312
20810,-7398,4059,14635,430,-331,-319
20820,-7430,4051,14600,398,-352,-316
20830,-7400,4045,14608,414,-398,-332
20840,-7370,4052,14610,397,-411,-319
20850,-7360,4071,14645,386,-383,-309
20860,-7372,4079,14636,404,-378,-322
20870,-7359,4078,14639,391,-382,-320
20880,-7350,4075,14639,403,-390,-328
20890,-7358,4066,14606,398,-376,-320
20900,-7352,4070,14611,407,-375,-326
20910,-7372,4078,14625,403,-390,-332
20920,-7388,4081,14636,396,-391,-330
20930,-7364,4076,14633,406,-392,-330
20940,-7373,4065,14631,396,-381,-323
20950,-7378,4060,14633,399,-367,-333
20960,-7406,4070,14632,396,-362,-329
20970,-7392,4089,14606,410,-375,-320
20980,-7360,4074,14569,427,-400,-337
20990,-7319,4043,14535,389,-395,-351
21000,-7365,4097,14541,382,-351,-348
21010,-7399,4111,14575,364,-344,-360
21020,-7383,4106,14608,369,-378,-380
21030,-7396,4097,14581,369,-382,-367
21040,-7482,4095,14587,341,-413,-336
21050,-7474,4109,14621,308,-449,-324
21060,-7474,4077,14658,308,-491,-321
21070,-7534,4080,14678,294,-491,-312
21080,-7601,4105,14611,292,-545,-293
21090,-7545,4095,14561,256,-582,-290
21100,-7346,4056,14532,256,-627,-281
21110,-7298,4064,14541,232,-594,-279
21120,-7297,4043,14576,233,-572,-287
21130,-7281,4024,14634,260,-548,-285
21140,-7273,4020,14642,275,-518,-305
21150,-7289,4026,14674,303,-507,-306
21160,-7335,4033,14701,308,-500,-312
21170,-7358,4056,14647,333,-500,-317
21180,-7376,4066,14643,348,-534,-323
21190,-7389,4059,14626,329,-526,-309
21200,-7389,4068,14624,317,-517,-298
21210,-7411,4064,14618,321,-505,-294
21220,-7405,4069,14617,319,-507,-300
21230,-7393,4068,14616,327,-480,-286
21240,-7354,4071,14602,357,-459,-293
21250,-7330,4035,14605,366,-439,-287
21260,-7298,4055,14555,360,-431,-307
21270,-7388,4088,14635,343,-429,-321
21280,-7446,4087,14627,342,-430,-315
21290,-7420,4072,14637,359,-476,-322
21300,-7363,4075,14664,321,-515,-320
21310,-7341,4094,14669,320,-510,-315
21320,-7374,4091,14667,327,-522,-320
21330,-7402,4079,14626,317,-524,-314
21340,-7354,4077,14611,329,-548,-293
21350,-7315,4070,14631,319,-554,-289
21360,-7318,4066,14621,310,-524,-294
21370,-7352,4075,14629,299,-494,-314
21380,-7324,4072,14625,305,-504,-315
21390,-7321,4043,14615,289,-506,-326
21400,-7318,4059,14646,297,-508,-338
21410,-7330,4060,14649,298,-511,-333
21420,-7348,4063,14652,262,-489,-324
21430,-7353,4060,14650,309,-505,-332
21440,-7367,4058,14627,292,-493,-311
21450,-7370,4052,14618,303,-508,-316
21460,-7333,4051,14652,295,-508,-318
21470,-7346,4041,14659,295,-495,-310
21480,-7333,4019,14644,295,-486,-310
21490,-7327,4045,14675,311,-484,-314
21500,-7319,4037,14686,318,-484,-316
21510,-7282,4027,14706,305,-485,-319
21520,-7275,4024,14710,329,-483,-321
21530,-7322,4053,14708,360,-448,-325
21540,-7345,4054,14680,386,-448,-322
21550,-7347,4067,14689,356,-419,-300
21560,-7365,4075,14660,375,-427,-292
21570,-7291,4055,14608,396,-398,-261
21580,-7300,4067,14577,401,-386,-274
21590,-7320,4087,14577,374,-393,-284
21600,-7392,4088,14543,269,-504,-303
21610,-7388,4091,14630,210,-562,-295
21620,-7406,4093,14630,207,-547,-309
21630,-7352,4083,14571,184,-459,-327
21640,-7270,4073,14590,180,-421,-346
21650,-7188,4038,14645,175,-361,-348
21660,-7160,4037,14668,222,-304,-372
21670,-7184,4007,14751,319,-201,-388
21680,-7270,4012,14785,357,-174,-398
21690,-7285,4035,14824,422,-177,-404
21700,-7289,4031,14828,445,-197,-405
21710,-7321,3970,14853,479,-262,-375
21720,-7329,3977,14801,492,-247,-363
21730,-7348,3979,14744,513,-258,-362
21740,-7457,3948,14664,554,-236,-353
21750,-7476,3976,14611,572,-237,-341
21760,-7512,4015,14531,593,-224,-337
21770,-7514,4015,14498,603,-213,-334
21780,-7536,4046,14532,575,-216,-321
21790,-7484,4069,14563,574,-203,-309
21800,-7472,4078,14508,574,-189,-315
21810,-7420,4064,14460,541,-221,-333
21820,-7420,4110,14480,514,-232,-321
21830,-7402,4177,14498,496,-267,-333
21840,-7377,4163,14539,455,-254,-333
21850,-7424,4174,14543,405,-244,-333
21860,-7449,4189,14604,410,-248,-345
21870,-7474,4168,14642,428,-241,-354
21880,-7502,4163,14651,425,-218,-355
21890,-7553,4185,14651,436,-212,-354
21900,-7665,4176,14564,440,-229,-371
21910,-7655,4180,14504,403,-281,-358
21920,-7561,4175,14464,390,-360,-346
21930,-7414,4111,14499,334,-413,-304
21940,-7435,4067,14486,342,-416,-335
21950,-7461,4047,14503,318,-387,-339
21960,-7504,4039,14485,333,-375,-344
21970,-7475,4051,14533,344,-423,-330
21980,-7500,4045,14564,354,-415,-345
21990,-7535,4043,14537,384,-374,-362
22000,-7613,4076,14517,416,-348,-350
22010,-7561,4096,14503,408,-376,-339
22020,-7558,4103,14558,381,-391,-336
22030,-7520,4096,14558,377,-349,-324
22040,-7518,4118,14563,398,-339,-331
22050,-7516,4122,14458,410,-339,-331
22060,-7491,4101,14449,436,-335,-347
22070,-7496,4098,14428,407,-326,-328
22080,-7483,4159,14489,388,-332,-322
22090,-7554,4144,14492,365,-337,-342
22100,-7637,4131,14491,363,-332,-344
22110,-7669,4168,14497,380,-369,-348
22120,-7615,4193,14537,333,-450,-347
22130,-7594,4175,14545,307,-457,-341
22140,-7558,4152,14505,312,-463,-334
22150,-7540,4130,14530,296,-448,-331
22160,-7496,4132,14549,307,-448,-343
22170,-7506,4109,14555,295,-447,-351
22180,-7487,4090,14568,305,-387,-371
22190,-7469,4102,14531,327,-378,-393
22200,-7466,4076,14533,347,-359,-407
22210,-7449,4076,14483,376,-344,-414
22220,-7440,4057,14488,441,-318,-446
22230,-7477,4067,14495,424,-277,-447
22240,-7482,4093,14537,451,-256,-449
22250,-7509,4087,14560,451,-230,-446
22260,-7655,4089,14507,513,-200,-469
22270,-7699,4123,14474,504,-199,-456
22280,-7770,4143,14459,507,-249,-435
22290,-7782,4178,14492,419,-325,-361
22300,-7765,4171,14488,398,-361,-362
22310,-7815,4160,14449,393,-387,-340
22320,-7792,4172,14412,381,-416,-328
22330,-7770,4176,14389,364,-456,-307
22340,-7700,4167,14400,338,-487,-304
22350,-7604,4141,14443,296,-471,-290
22360,-7585,4148,14427,301,-426,-300
22370,-7579,4161,14431,306,-408,-317
22380,-7575,4124,14473,313,-421,-313
22390,-7567,4101,14477,326,-428,-341
22400,-7591,4118,14453,352,-431,-331
22410,-7605,4111,14491,315,-468,-322
22420,-7615,4108,14489,310,-484,-314
22430,-7642,4117,14503,309,-498,-320
22440,-7636,4091,14503,322,-518,-310
22450,-7655,4075,14495,341,-526,-295
22460,-7649,4072,14484,376,-525,-300
22470,-7639,4075,14468,376,-509,-306
22480,-7658,4080,14467,385,-483,-303
22490,-7646,4087,14478,387,-472,-303
22500,-7596,4076,14484,383,-460,-292
22510,-7574,4089,14483,407,-448,-294
22520,-7640,4139,14436,378,-422,-294
22530,-7688,4185,14428,390,-466,-297
22540,-7712,4248,14402,352,-521,-276
22550,-7782,4217,14332,310,-594,-264
22560,-7741,4180,14301,246,-741,-266
22570,-7653,4191,14341,188,-773,-263
22580,-7598,4174,14417,173,-753,-250
22590,-7504,4156,14595,158,-678,-239
22600,-7547,4148,14613,193,-676,-229
22610,-7558,4131,14600,206,-688,-234
22620,-7521,4130,14595,261,-738,-265
22630,-7513,4130,14577,238,-737,-273
22640,-7494,4101,14596,239,-715,-279
22650,-7532,4090,14596,228,-710,-291
22660,-7604,4085,14514,209,-724,-269
22670,-7561,4102,14483,187,-745,-255
22680,-7497,4091,14499,158,-755,-257
22690,-7489,4067,14458,172,-661,-264
22700,-7503,4068,14437,169,-618,-276
22710,-7499,4054,14462,178,-598,-265
22720,-7444,4057,14537,204,-624,-260
22730,-7417,4055,14552,200,-615,-265
22740,-7408,4075,14594,186,-613,-276
22750,-7399,4090,14612,167,-605,-279
22760,-7430,4085,14621,222,-646,-280
22770,-7427,4085,14650,200,-665,-275
22780,-7408,4072,14597,248,-633,-276
22790,-7392,4097,14587,243,-616,-280
22800,-7459,4091,14560,243,-599,-283
22810,-7431,4092,14554,267,-525,-273
22820,-7438,4078,14538,272,-508,-271
22830,-7401,4070,14552,284,-477,-274
22840,-7382,4085,14584,295,-451,-286
22850,-7482,4090,14612,284,-427,-296
22860,-7478,4073,14623,285,-472,-301
22870,-7447,4048,14621,258,-521,-289
22880,-7366,4061,14625,255,-576,-305
22890,-7362,4066,14613,262,-580,-306
22900,-7384,4054,14595,279,-561,-311
22910,-7449,4062,14570,301,-537,-305
22920,-7449,4038,14583,289,-528,-307
22930,-7414,4047,14605,290,-526,-298
22940,-7418,4040,14597,299,-519,-311
22950,-7389,4049,14606,316,-494,-313
22960,-7418,4068,14631,319,-485,-325
22970,-7411,4059,14594,304,-496,-325
22980,-7394,4058,14629,294,-497,-317
22990,-7390,4055,14630,312,-508,-305
23000,-7392,4069,14614,281,-502,-294
23010,-7401,4061,14648,306,-504,-313
23020,-7408,4063,14641,292,-485,-288
23030,-7430,4053,14614,302,-501,-306
23040,-7402,4067,14605,322,-505,-298
23050,-7390,4040,14569,328,-473,-304
23060,-7396,4028,14592,347,-468,-325
23070,-7410,4037,14591,318,-446,-307
23080,-7407,4059,14619,327,-440,-312
23090,-7388,4058,14603,313,-448,-308
23100,-7394,4050,14612,286,-460,-305
23110,-7424,4058,14610,293,-465,-306
23120,-7422,4048,14633,280,-478,-304
23130,-7370,4040,14648,285,-505,-310
23140,-7384,4062,14625,298,-498,-312
23150,-7406,4043,14645,320,-476,-319
23160,-7396,4043,14621,304,-492,-331
23170,-7415,4029,14619,301,-476,-313
23180,-7362,4052,14615,304,-484,-304
23190,-7380,4053,14617,331,-462,-305
23200,-7392,4047,14629,327,-462,-311
23210,-7411,4051,14634,323,-461,-302
23220,-7382,4040,14626,303,-473,-311
23230,-7379,4034,14640,309,-485,-312
23240,-7384,4042,14642,301,-473,-321
23250,-7382,4032,14629,302,-453,-319
23260,-7392,4031,14614,338,-449,-325
23270,-7392,4047,14594,353,-445,-313
23280,-7367,4046,14616,321,-464,-321
23290,-7386,4045,14612,334,-453,-327
23300,-7403,4046,14641,337,-451,-324
23310,-7414,4031,14630,330,-470,-323
23320,-7410,4029,14639,295,-474,-307
23330,-7397,4022,14654,319,-475,-301
23340,-7368,4035,14624,328,-480,-308
23350,-7374,4038,14623,332,-466,-311
23360,-7411,4014,14606,325,-454,-301
23370,-7407,4013,14623,323,-469,-312
23380,-7394,4071,14608,326,-459,-298
23390,-7363,4018,14613,316,-460,-302
23400,-7327,3977,14586,328,-476,-309
23410,-7332,4017,14560,327,-469,-320
23420,-7339,4073,14621,325,-440,-327
23430,-7387,4045,14642,334,-454,-346
23440,-7373,4045,14616,341,-447,-335
23450,-7437,4069,14628,326,-494,-320
23460,-7446,4067,14666,323,-508,-316
23470,-7416,4045,14705,312,-530,-310
23480,-7417,4042,14559,278,-580,-290
23490,-7361,4023,14559,247,-603,-277
23500,-7326,4028,14582,244,-611,-289
23510,-7292,3999,14611,255,-548,-304
23520,-7277,3990,14633,264,-522,-303
23530,-7290,3987,14666,269,-513,-305
23540,-7296,3996,14682,285,-496,-304
23550,-7342,3989,14687,293,-495,-310
23560,-7354,4010,14688,299,-507,-309
23570,-7371,3983,14675,319,-518,-313
23580,-7354,4009,14658,328,-501,-299
23590,-7349,4025,14651,335,-512,-290
23600,-7337,4008,14657,325,-499,-298
23610,-7332,4002,14651,338,-488,-304
23620,-7337,4028,14637,332,-455,-297
23630,-7323,4005,14631,345,-426,-303
23640,-7299,3997,14623,354,-416,-316
23650,-7301,4012,14667,383,-379,-326
23660,-7356,4055,14682,404,-355,-319
23670,-7412,4066,14674,384,-373,-328
23680,-7353,4009,14654,353,-466,-321
23690,-7336,4025,14662,347,-485,-325
23700,-7316,4049,14661,331,-488,-323
23710,-7379,4049,14636,353,-494,-316
23720,-7359,4046,14626,321,-483,-303
23730,-7359,4030,14633,331,-490,-311
23740,-7331,4019,14653,325,-478,-314
23750,-7353,4029,14666,302,-469,-307
23760,-7322,4038,14658,325,-461,-314
23770,-7332,4014,14660,301,-451,-322
23780,-7311,4010,14657,318,-452,-333
23790,-7328,4009,14658,339,-445,-336
23800,-7354,4002,14648,332,-453,-339
23810,-7361,4012,14659,338,-465,-341
23820,-7363,4017,14651,345,-470,-324
23830,-7359,4005,14672,339,-475,-319
23840,-7343,3985,14671,329,-480,-307
23850,-7330,3994,14667,332,-457,-304
23860,-7341,3991,14663,334,-446,-299
23870,-7349,4006,14655,378,-434,-319
23880,-7341,4008,14647,328,-415,-316
23890,-7349,4014,14656,345,-440,-330
23900,-7321,4010,14672,323,-430,-319
23910,-7321,4031,14658,348,-436,-328
23920,-7335,4013,14670,335,-423,-318
23930,-7351,4025,14675,357,-428,-320
23940,-7341,4022,14681,353,-438,-319
23950,-7349,4036,14656,348,-438,-311
23960,-7363,4020,14640,367,-442,-320
23970,-7340,4028,14616,338,-441,-324
23980,-7363,4009,14642,346,-437,-316
23990,-7368,4019,14651,316,-441,-310
24000,-7376,4031,14666,327,-446,-316
24010,-7364,4014,14673,332,-442,-326
24020,-7342,4018,14659,332,-451,-316
24030,-7334,4017,14662,325,-444,-314
24040,-7339,4008,14661,306,-444,-315
24050,-7322,4012,14660,317,-446,-314
24060,-7334,4024,14648,331,-441,-331
24070,-7342,4011,14664,339,-432,-324
24080,-7353,4009,14658,356,-434,-329
24090,-7363,4020,14635,329,-441,-319
24100,-7361,4008,14628,327,-438,-324
24110,-7348,4002,14648,348,-443,-322
24120,-7340,4000,14642,368,-445,-322
24130,-7356,4014,14660,339,-450,-327
24140,-7348,4014,14660,334,-442,-321
24150,-7344,4024,14678,355,-452,-329
24160,-7356,4019,14647,334,-439,-331
24170,-7377,4004,14649,335,-433,-311
24180,-7367,4012,14653,347,-448,-318
24190,-7350,4003,14673,368,-462,-317
24200,-7359,4017,14652,358,-439,-317
24210,-7359,4002,14646,349,-457,-319
24220,-7398,3993,14629,354,-455,-311
24230,-7411,4010,14652,340,-452,-300
24240,-7398,4030,14637,348,-461,-294
24250,-7345,4009,14619,334,-486,-316
24260,-7271,3966,14626,327,-493,-311
24270,-7255,3996,14597,334,-471,-317
24280,-7335,4061,14654,325,-418,-342
24290,-7330,4030,14676,335,-437,-352
24300,-7334,4025,14673,322,-436,-341
24310,-7366,4028,14679,343,-454,-332
24320,-7413,4033,14695,317,-510,-309
24330,-7387,4029,14718,330,-530,-300
24340,-7374,4007,14696,333,-551,-310
24350,-7435,4028,14649,318,-529,-307
24360,-7430,4013,14624,311,-539,-307
24370,-7372,4010,14576,302,-567,-303
24380,-7352,4002,14595,277,-581,-294
24390,-7265,3988,14620,251,-532,-296
24400,-7283,3999,14637,261,-524,-313
24410,-7258,3971,14672,279,-502,-319
24420,-7271,3952,14703,301,-494,-314
24430,-7331,3987,14676,327,-511,-316
24440,-7327,3989,14672,327,-496,-289
24450,-7324,4011,14670,338,-486,-296
24460,-7326,4003,14664,348,-493,-295
24470,-7329,3999,14671,338,-448,-307
24480,-7345,4011,14662,349,-448,-320
24490,-7322,4006,14642,335,-420,-302
24500,-7288,3993,14643,350,-416,-306
24510,-7248,3990,14678,361,-382,-318
24520,-7267,4029,14709,360,-363,-313
24530,-7357,4052,14709,361,-363,-327
24540,-7386,4025,14703,382,-394,-337
24550,-7328,4031,14681,362,-465,-340
24560,-7307,4042,14667,346,-487,-326
24570,-7294,4022,14655,337,-497,-317
24580,-7323,4018,14648,343,-500,-327
24590,-7333,4003,14649,324,-490,-322
24600,-7337,4004,14664,317,-470,-316
24610,-7347,4007,14668,325,-445,-316
24620,-7320,4004,14668,327,-460,-335
24630,-7305,4000,14671,330,-462,-327
24640,-7298,3995,14686,324,-461,-324
24650,-7295,3997,14676,321,-438,-330
24660,-7283,3979,14682,324,-437,-336
24670,-7341,3981,14685,320,-438,-327
24680,-7325,3983,14699,342,-463,-334
24690,-7324,3973,14704,334,-466,-312
24700,-7333,3982,14674,342,-473,-317
24710,-7333,3985,14670,348,-464,-307
24720,-7313,3973,14655,316,-441,-307
24730,-7323,3996,14666,338,-446,-320
24740,-7310,3994,14659,354,-461,-346
24750,-7311,4008,14657,337,-437,-333
24760,-7329,4006,14670,330,-431,-331
24770,-7319,4011,14678,339,-436,-322
24780,-7303,3996,14675,338,-447,-315
24790,-7320,4020,14675,349,-443,-324
24800,-7334,3995,14659,351,-439,-323
24810,-7319,4003,14661,344,-451,-324
24820,-7341,3997,14670,338,-445,-314
24830,-7353,4000,14681,333,-448,-310
24840,-7322,4006,14667,333,-443,-313
24850,-7341,4001,14669,333,-446,-317
24860,-7327,4010,14675,337,-449,-323
24870,-7307,3990,14708,327,-452,-312
24880,-7318,3986,14699,350,-451,-315
24890,-7299,3992,14678,346,-445,-317
24900,-7310,3969,14671,300,-444,-304
24910,-7325,3976,14677,331,-443,-315
24920,-7323,3991,14682,340,-443,-308
24930,-7329,3995,14674,342,-441,-315
24940,-7329,3976,14671,360,-449,-314
24950,-7339,3979,14666,334,-444,-311
24960,-7332,3981,14652,339,-445,-313
24970,-7325,3991,14656,358,-455,-327
24980,-7322,3991,14649,351,-444,-312
24990,-7329,3987,14649,339,-460,-319
25000,-7339,4011,14665,333,-463,-326
25010,-7327,4010,14665,335,-479,-319
25020,-7306,3998,14676,322,-465,-309
25030,-7308,3999,14677,342,-465,-336
25040,-7314,3992,14669,337,-450,-321
25050,-7323,4002,14694,345,-449,-322
25060,-7330,4016,14673,334,-441,-322
25070,-7349,4003,14673,319,-444,-316
25080,-7363,3997,14670,343,-455,-320
25090,-7316,3977,14652,352,-470,-316
25100,-7308,3996,14650,350,-470,-323
25110,-7329,3986,14658,343,-464,-321
25120,-7339,3971,14647,324,-452,-310
25130,-7360,4002,14670,313,-445,-292
25140,-7383,4013,14700,323,-449,-286
25150,-7288,3959,14658,314,-504,-313
25160,-7217,3940,14628,312,-496,-311
25170,-7237,3961,14635,336,-479,-323
25180,-7305,4007,14665,345,-446,-324
25190,-7299,3986,14683,330,-441,-351
25200,-7325,4007,14714,327,-437,-337
25210,-7360,4029,14710,346,-459,-330
25220,-7394,4031,14726,324,-527,-301
25230,-7375,4013,14735,313,-546,-286
25240,-7361,4011,14732,315,-543,-293
25250,-7376,4019,14677,293,-524,-297
25260,-7371,3990,14609,292,-549,-303
25270,-7325,3980,14590,301,-584,-301
25280,-7272,3968,14576,256,-581,-303
25290,-7248,3973,14669,253,-550,-308
25300,-7225,3987,14664,267,-511,-287
25310,-7232,3947,14680,264,-516,-306
25320,-7239,3953,14724,300,-512,-309
25330,-7250,3958,14747,294,-513,-319
25340,-7285,3957,14727,326,-509,-320
25350,-7266,3960,14707,309,-516,-308
25360,-7290,3958,14704,332,-502,-297
25370,-7297,3962,14693,342,-475,-282
25380,-7324,3985,14676,349,-442,-300
25390,-7282,3985,14675,332,-441,-305
25400,-7214,3981,14687,341,-406,-309
25410,-7238,3999,14699,374,-394,-319
25420,-7287,4041,14713,382,-387,-328
25430,-7355,4031,14721,365,-387,-318
25440,-7305,3981,14699,356,-457,-330
25450,-7269,4001,14706,347,-482,-319
25460,-7262,4008,14713,359,-486,-320
25470,-7295,4027,14615,344,-516,-333
25480,-7268,4001,14668,328,-499,-316
25490,-7247,4006,14727,325,-485,-323
25500,-7296,3998,14687,328,-478,-323
25510,-7297,3980,14712,318,-483,-327
25520,-7280,3992,14670,295,-480,-325
25530,-7290,3998,14692,316,-467,-318
25540,-7286,3977,14674,323,-455,-328
25550,-7255,3958,14676,325,-464,-336
25560,-7267,3943,14719,320,-464,-326
25570,-7296,3970,14741,315,-461,-323
25580,-7306,3948,14734,345,-471,-318
25590,-7299,3960,14720,340,-486,-325
25600,-7288,3969,14725,332,-496,-316
25610,-7261,3959,14694,314,-472,-295
25620,-7267,3956,14685,329,-465,-314
25630,-7281,3973,14685,338,-439,-310
25640,-7288,3989,14697,328,-432,-310
25650,-7278,3980,14704,347,-435,-321
25660,-7270,3974,14721,340,-445,-330
25670,-7255,3970,14711,347,-437,-324
25680,-7274,3984,14696,344,-441,-328
25690,-7292,4000,14694,340,-441,-313
25700,-7289,3981,14702,324,-442,-310
25710,-7281,3980,14693,321,-440,-309
25720,-7263,3968,14690,332,-444,-316
25730,-7284,3985,14689,347,-439,-325
25740,-7291,3992,14685,346,-438,-329
25750,-7296,3974,14694,331,-441,-314
25760,-7291,3990,14704,323,-441,-325
25770,-7283,3980,14706,321,-442,-315
25780,-7266,3971,14712,336,-447,-317
25790,-7246,3986,14709,308,-432,-310
25800,-7265,3978,14710,332,-440,-320
25810,-7290,3992,14714,328,-432,-323
25820,-7297,3964,14685,353,-442,-325
25830,-7311,3958,14667,322,-442,-330
25840,-7289,3965,14707,329,-435,-315
25850,-7314,3964,14698,351,-445,-325
25860,-7296,3953,14693,341,-462,-325
25870,-7295,3979,14683,332,-460,-331
25880,-7275,3978,14699,341,-462,-329
25890,-7263,3967,14712,338,-452,-323
25900,-7250,3970,14699,349,-448,-325
25910,-7253,3967,14706,355,-442,-326
25920,-7276,3967,14663,338,-449,-313
25930,-7261,3977,14710,357,-443,-325
25940,-7258,3996,14705,354,-431,-310
25950,-7275,3995,14721,355,-430,-317
25960,-7291,3980,14697,338,-437,-322
25970,-7309,3971,14686,356,-452,-329
25980,-7300,3978,14705,354,-458,-321
25990,-7277,3994,14699,337,-465,-310
26000,-7286,3967,14681,317,-464,-322
26010,-7320,3952,14695,335,-444,-306
26020,-7339,3953,14707,328,-460,-300
26030,-7333,4026,14684,345,-480,-295
26040,-7275,3959,14676,329,-510,-305
26050,-7190,3924,14658,311,-510,-302
26060,-7222,3974,14681,336,-441,-327
26070,-7277,4001,14690,329,-407,-334
26080,-7302,3987,14701,336,-423,-349
26090,-7283,3982,14708,329,-454,-353
26100,-7344,4015,14753,363,-468,-335
26110,-7373,4017,14771,332,-499,-311
26120,-7358,3985,14751,345,-551,-308
26130,-7343,3996,14726,329,-518,-298
26140,-7380,4015,14742,306,-526,-292
26150,-7294,3968,14624,294,-569,-282
26160,-7211,3955,14626,275,-597,-292
26170,-7201,3962,14631,262,-581,-291
26180,-7212,3937,14665,259,-520,-319
26190,-7207,3950,14679,254,-517,-315
26200,-7205,3940,14710,273,-511,-314
26210,-7206,3945,14739,264,-514,-322
26220,-7232,3963,14758,275,-524,-332
26230,-7273,3950,14752,304,-526,-330
26240,-7285,3952,14757,310,-527,-323
26250,-7253,3950,14741,333,-522,-312
26260,-7257,3954,14731,335,-511,-299
26270,-7273,3933,14751,332,-503,-297
26280,-7249,3952,14715,337,-489,-299
26290,-7241,3954,14698,332,-471,-293
26300,-7227,3970,14725,319,-464,-316
26310,-7188,3951,14724,353,-452,-324
26320,-7177,3949,14721,353,-399,-321
26330,-7289,3948,14717,347,-461,-331
26340,-7207,3961,14728,345,-466,-316
26350,-7210,3967,14737,333,-472,-325
26360,-7251,3983,14730,345,-484,-326
26370,-7265,3982,14726,316,-476,-306
26380,-7272,3970,14714,321,-486,-300
26390,-7234,3963,14703,306,-480,-314
26400,-7232,3954,14710,302,-476,-304
26410,-7217,3950,14740,303,-454,-326
26420,-7224,3965,14718,334,-450,-334
26430,-7228,3974,14747,321,-439,-331
26440,-7219,3937,14745,335,-451,-330
26450,-7227,3936,14746,317,-457,-335
26460,-7231,3926,14743,334,-449,-323
26470,-7229,3940,14737,326,-449,-315
26480,-7250,3922,14733,334,-457,-326
26490,-7255,3920,14729,336,-458,-322
26500,-7237,3918,14727,350,-457,-325
26510,-7253,3953,14721,349,-444,-320
26520,-7272,3932,14734,344,-445,-318
26530,-7262,3947,14731,366,-454,-316
26540,-7249,3958,14723,318,-434,-311
26550,-7236,3953,14720,331,-442,-317
26560,-7218,3972,14711,357,-450,-327
26570,-7223,3988,14729,361,-440,-328
26580,-7244,3936,14719,355,-438,-321
26590,-7231,3955,14719,372,-446,-324
26600,-7224,3975,14726,364,-456,-345
26610,-7235,3962,14718,350,-437,-328
26620,-7242,3959,14741,332,-442,-333
26630,-7269,3976,14719,355,-442,-317
26640,-7289,3973,14699,359,-447,-315
26650,-7279,3953,14736,339,-453,-319
26660,-7248,3950,14716,340,-463,-301
26670,-7216,3950,14741,328,-471,-319
26680,-7221,3953,14743,331,-473,-321
26690,-7223,3943,14748,323,-449,-317
26700,-7232,3949,14749,345,-450,-325
26710,-7225,3953,14734,336,-446,-327
26720,-7237,3942,14740,353,-440,-315
26730,-7238,3941,14729,344,-432,-317
26740,-7242,3955,14734,343,-449,-319
26750,-7251,3947,14721,341,-455,-329
26760,-7238,3922,14694,361,-450,-320
26770,-7227,3944,14718,365,-451,-331
26780,-7248,3932,14704,336,-423,-327
26790,-7246,3958,14715,352,-419,-320
26800,-7231,3960,14737,351,-446,-327
26810,-7226,3959,14740,341,-430,-323
26820,-7265,3955,14731,355,-428,-322
26830,-7255,3961,14737,360,-448,-324
26840,-7257,3958,14709,363,-447,-323
26850,-7243,3940,14725,352,-463,-320
26860,-7215,3947,14718,346,-448,-318
26870,-7225,3952,14721,338,-435,-315
26880,-7313,3952,14700,344,-424,-307
26890,-7303,3963,14718,333,-438,-286
26900,-7312,3977,14695,358,-452,-295
26910,-7277,3977,14694,307,-461,-297
26920,-7134,3930,14679,329,-497,-317
26930,-7183,3947,14702,312,-449,-317
26940,-7239,3991,14709,323,-404,-330
26950,-7223,3929,14752,349,-429,-358
26960,-7227,3970,14761,334,-434,-346
26970,-7273,3964,14780,333,-439,-332
26980,-7345,3990,14775,339,-509,-298
26990,-7311,3966,14759,336,-538,-301
27000,-7277,3944,14754,340,-548,-312
27010,-7282,3970,14749,348,-535,-313
27020,-7308,3959,14665,332,-552,-317
27030,-7251,3940,14667,295,-565,-288
27040,-7180,3951,14696,260,-527,-296
27050,-7179,3945,14705,243,-510,-305
27060,-7184,3926,14710,264,-501,-307
27070,-7171,3916,14727,287,-505,-304
27080,-7192,3921,14758,269,-506,-303
27090,-7203,3909,14775,296,-512,-315
27100,-7207,3920,14808,329,-497,-317
27110,-7216,3922,14790,331,-470,-301
27120,-7240,3909,14747,346,-483,-301
27130,-7210,3903,14719,373,-479,-308
27140,-7194,3914,14720,346,-475,-303
27150,-7238,3921,14763,343,-461,-294
27160,-7266,3962,14761,343,-443,-305
27170,-7244,3972,14754,361,-427,-314
27180,-7171,3905,14761,373,-414,-315
27190,-7161,3942,14729,388,-377,-315
27200,-7209,3970,14744,385,-381,-319
27210,-7260,3982,14727,373,-395,-310
27220,-7241,3951,14735,375,-438,-330
27230,-7151,3947,14743,352,-426,-320
27240,-7160,3964,14773,393,-408,-345
27250,-7243,3957,14792,370,-388,-322
27260,-7273,3957,14767,363,-396,-320
27270,-7242,3960,14739,390,-418,-316
27280,-7210,3945,14733,412,-380,-329
27290,-7223,3929,14743,417,-363,-330
27300,-7236,3959,14726,428,-345,-340
27310,-7243,3936,14709,432,-318,-335
27320,-7260,3940,14724,421,-327,-330
27330,-7276,3959,14722,414,-331,-319
27340,-7265,3950,14714,425,-347,-324
27350,-7268,3978,14717,440,-357,-327
27360,-7263,3971,14708,455,-347,-314
27370,-7281,3955,14684,449,-335,-324
27380,-7284,3964,14696,439,-333,-336
27390,-7302,3974,14693,448,-320,-337
27400,-7257,3981,14716,444,-349,-332
27410,-7255,3999,14716,452,-351,-338
27420,-7261,4009,14708,442,-342,-331
27430,-7265,3999,14703,428,-317,-329
27440,-7261,3997,14708,467,-331,-346
27450,-7280,4007,14673,457,-313,-340
27460,-7284,4016,14659,453,-341,-340
27470,-7311,4023,14648,433,-342,-344
27480,-7339,4012,14651,435,-327,-329
27490,-7353,4035,14631,442,-335,-343
27500,-7315,4004,14647,424,-356,-331
27510,-7329,4012,14656,385,-365,-326
27520,-7324,4009,14662,387,-359,-328
27530,-7344,4011,14663,391,-361,-341
27540,-7373,3997,14658,385,-374,-339
27550,-7328,3995,14648,375,-385,-324
27560,-7324,3992,14659,395,-398,-339
27570,-7316,3999,14649,374,-400,-339
27580,-7295,4009,14645,376,-399,-320
27590,-7339,4008,14657,394,-420,-335
27600,-7356,4010,14644,366,-405,-333
27610,-7366,4025,14626,371,-407,-321
27620,-7365,4014,14635,368,-447,-330
27630,-7373,4030,14623,368,-454,-341
27640,-7358,4024,14620,364,-456,-335
27650,-7355,4045,14634,365,-453,-324
27660,-7348,4047,14655,309,-456,-307
27670,-7346,4040,14650,331,-470,-315
27680,-7353,4025,14647,333,-472,-308
27690,-7331,4020,14649,309,-476,-311
27700,-7311,4023,14644,314,-485,-311
27710,-7301,4009,14680,325,-485,-320
27720,-7294,3997,14664,327,-476,-330
27730,-7371,3983,14662,314,-472,-301
27740,-7379,4026,14661,320,-489,-310
27750,-7333,4023,14651,331,-502,-302
27760,-7264,3973,14654,308,-518,-307
27770,-7238,3952,14667,314,-506,-317
27780,-7364,4059,14663,328,-441,-332
27790,-7342,4021,14668,322,-441,-333
27800,-7289,4006,14677,328,-474,-339
27810,-7316,4024,14700,331,-491,-330
27820,-7365,4043,14700,333,-512,-311
27830,-7348,4018,14696,314,-528,-316
27840,-7339,4044,14718,292,-518,-303
27850,-7395,4044,14707,319,-503,-310
27860,-7409,4032,14645,310,-529,-312
27870,-7396,4038,14590,303,-549,-298
27880,-7321,4028,14576,282,-568,-302
27890,-7242,4001,14632,254,-562,-303
27900,-7230,3992,14641,258,-523,-313
27910,-7270,3981,14665,259,-495,-315
27920,-7263,3966,14716,269,-513,-315
27930,-7278,3970,14724,286,-516,-305
27940,-7282,3971,14716,282,-526,-298
27950,-7280,3980,14714,304,-524,-304
27960,-7269,3954,14692,329,-519,-312
27970,-7270,3965,14662,335,-494,-308
27980,-7296,3973,14667,349,-482,-311
27990,-7315,3991,14696,338,-480,-300
28000,-7312,4005,14711,345,-461,-298
28010,-7282,3983,14673,351,-449,-315
28020,-7254,3955,14658,333,-436,-320
28030,-7246,3973,14679,347,-417,-312
28040,-7263,4008,14686,380,-414,-324
28050,-7328,4015,14694,373,-402,-332
28060,-7355,4021,14703,363,-428,-324
28070,-7300,4025,14711,362,-454,-328
28080,-7263,4003,14708,357,-456,-327
28090,-7317,4035,14668,361,-482,-319
28100,-7301,4032,14685,330,-500,-329
28110,-7291,4018,14695,306,-496,-306
28120,-7284,4002,14709,321,-461,-306
28130,-7292,4016,14707,324,-464,-308
28140,-7288,4016,14695,327,-465,-328
28150,-7292,4024,14666,332,-472,-323
28160,-7287,4016,14624,340,-455,-330
28170,-7266,3983,14653,322,-467,-332
28180,-7267,3982,14696,334,-455,-325
28190,-7265,3982,14708,329,-447,-321
28200,-7304,4003,14710,358,-456,-325
28210,-7328,3986,14683,340,-463,-319
28220,-7297,3983,14697,324,-472,-321
28230,-7293,4011,14698,344,-437,-310
28240,-7280,3989,14680,338,-439,-310
28250,-7274,4006,14695,336,-444,-315
28260,-7267,4009,14694,315,-442,-321
28270,-7274,4010,14690,318,-444,-318
28280,-7282,4009,14685,335,-435,-330
28290,-7297,4028,14687,346,-433,-318
28300,-7315,4019,14687,349,-437,-313
28310,-7307,4011,14669,329,-441,-316
28320,-7284,4007,14687,328,-438,-314
28330,-7315,4002,14681,353,-441,-316
28340,-7302,4000,14683,330,-445,-318
28350,-7282,4007,14693,341,-447,-326
28360,-7299,3990,14672,337,-453,-319
28370,-7305,4006,14701,324,-454,-318
28380,-7298,4003,14714,343,-467,-332
28390,-7273,4001,14689,313,-467,-333
28400,-7282,3999,14686,315,-444,-327
28410,-7297,3979,14695,327,-443,-323
28420,-7285,3979,14711,328,-456,-320
28430,-7330,3976,14684,312,-441,-312
28440,-7301,3976,14686,333,-467,-320
28450,-7307,3964,14665,335,-460,-320
28460,-7277,3972,14695,342,-440,-329
28470,-7290,3975,14705,367,-431,-333
28480,-7323,3988,14676,372,-441,-325
28490,-7324,3991,14699,336,-451,-320
28500,-7286,3983,14710,337,-460,-306
28510,-7259,3973,14700,354,-470,-304
28520,-7308,3974,14682,353,-464,-314
28530,-7333,3985,14682,349,-455,-300
28540,-7334,3998,14711,341,-460,-301
28550,-7352,4043,14709,338,-463,-286
28560,-7281,3995,14656,337,-495,-308
28570,-7205,3951,14656,325,-490,-302
28580,-7190,3965,14615,350,-456,-324
28590,-7288,4038,14684,357,-386,-329
28600,-7291,4015,14695,371,-405,-344
28610,-7257,4002,14709,354,-419,-338
28620,-7337,4048,14711,326,-470,-323
28630,-7351,4034,14710,318,-498,-309
28640,-7339,4000,14700,330,-528,-316
28650,-7344,4009,14726,346,-516,-314
28660,-7369,3986,14713,326,-503,-314
28670,-7393,3991,14666,309,-527,-291
28680,-7334,3999,14643,296,-557,-285
28690,-7211,3995,14651,295,-550,-293
28700,-7203,3955,14657,282,-531,-295
28710,-7207,3942,14663,281,-486,-303
28720,-7209,3937,14711,314,-481,-313
28730,-7217,3947,14726,325,-478,-307
28740,-7274,3993,14744,336,-490,-323
28750,-7282,3987,14733,326,-492,-319
28760,-7270,3966,14711,326,-499,-316
28770,-7282,3965,14691,350,-493,-307
28780,-7284,3974,14703,343,-479,-276
28790,-7274,3986,14704,349,-479,-284
28800,-7284,3988,14690,366,-461,-295
28810,-7273,4011,14683,349,-437,-309
28820,-7244,3980,14666,342,-430,-312
28830,-7232,3965,14664,360,-416,-327
28840,-7245,3996,14671,374,-392,-326
28850,-7291,4028,14712,343,-406,-333
28860,-7330,4022,14723,338,-409,-330
28870,-7321,4007,14715,342,-446,-333
28880,-7209,4015,14699,335,-511,-330
28890,-7220,4022,14688,316,-491,-314
28900,-7276,4010,14675,331,-475,-327
28910,-7290,4001,14692,321,-476,-315
28920,-7257,4001,14715,318,-474,-315
28930,-7261,3989,14718,306,-460,-309
28940,-7291,3970,14738,319,-470,-318
28950,-7263,3987,14694,318,-482,-326
28960,-7278,3954,14694,316,-478,-327
28970,-7247,3977,14683,328,-465,-333
28980,-7256,3967,14698,335,-462,-323
28990,-7257,3954,14690,339,-461,-330
29000,-7273,3977,14707,323,-459,-317
29010,-7274,3963,14710,344,-465,-294
29020,-7277,3968,14712,349,-469,-294
29030,-7253,3958,14721,335,-459,-308
29040,-7235,3964,14724,346,-458,-316
29050,-7268,3978,14692,357,-449,-315
29060,-7268,3987,14705,339,-440,-312
29070,-7263,4008,14713,350,-443,-317
29080,-7249,3990,14722,330,-436,-315
29090,-7246,3999,14709,350,-429,-329
29100,-7226,3995,14706,350,-422,-322
29110,-7285,4004,14707,349,-431,-324
29120,-7285,4013,14686,342,-436,-323
29130,-7259,3999,14663,360,-449,-319
29140,-7266,3985,14694,332,-438,-315
29150,-7289,3998,14703,356,-442,-332
29160,-7275,3979,14691,357,-434,-327
29170,-7289,3990,14664,328,-445,-317
29180,-7277,3989,14710,333,-432,-321
29190,-7263,3980,14711,344,-451,-328
29200,-7272,3980,14688,340,-444,-329
29210,-7245,3982,14707,352,-455,-335
29220,-7249,3964,14726,354,-453,-332
29230,-7245,3968,14725,332,-442,-324
29240,-7263,3973,14737,345,-418,-328
29250,-7300,3974,14717,365,-423,-330
29260,-7282,3990,14729,363,-424,-320
29270,-7264,3997,14707,336,-434,-327
29280,-7299,3979,14693,358,-437,-333
29290,-7306,3976,14697,347,-440,-324
29300,-7273,3969,14705,367,-447,-314
29310,-7260,3971,14707,372,-456,-311
29320,-7244,3981,14691,358,-445,-307
29330,-7252,3985,14703,348,-438,-311
29340,-7349,3979,14705,321,-417,-306
29350,-7343,3987,14737,350,-443,-301
29360,-7344,4029,14701,352,-453,-287
29370,-7281,4001,14679,363,-479,-295
29380,-7146,3961,14653,316,-477,-313
29390,-7197,3995,14634,333,-436,-328
29400,-7286,4027,14675,346,-404,-340
29410,-7251,3989,14721,343,-416,-341
29420,-7270,3996,14734,366,-434,-340
29430,-7318,4018,14718,353,-487,-318
29440,-7331,4014,14735,342,-510,-305
29450,-7330,3996,14731,346,-528,-310
29460,-7328,3997,14733,343,-532,-302
29470,-7349,3986,14696,320,-528,-305
29480,-7338,3990,14662,303,-555,-298
29490,-7288,3981,14639,287,-561,-293
29500,-7215,3947,14667,263,-549,-311
29510,-7220,3960,14683,269,-528,-318
29520,-7199,3967,14711,287,-516,-320
29530,-7218,3947,14747,297,-503,-311
29540,-7219,3933,14750,303,-508,-318
29550,-7215,3966,14742,327,-490,-317
29560,-7226,3963,14750,330,-504,-317
29570,-7240,3950,14711,348,-493,-304
29580,-7233,3958,14721,353,-479,-299
29590,-7241,3962,14723,352,-475,-301
29600,-7246,3980,14716,344,-469,-301
29610,-7280,3986,14729,357,-468,-311
29620,-7266,3992,14716,352,-456,-308
29630,-7230,3959,14693,371,-441,-311
29640,-7212,3951,14687,360,-406,-306
29650,-7217,4013,14731,389,-397,-323
29660,-7297,4018,14710,367,-374,-334
29670,-7316,4014,14722,360,-397,-327
29680,-7224,3965,14724,361,-456,-335
29690,-7205,4003,14722,351,-460,-344
29700,-7266,3999,14702,339,-461,-338
29710,-7316,4005,14701,347,-470,-325
29720,-7236,3990,14697,325,-486,-320
29730,-7244,3969,14711,324,-472,-310
29740,-7236,3968,14722,329,-460,-309
29750,-7249,3966,14727,328,-459,-325
29760,-7247,3955,14703,326,-450,-323
29770,-7235,3966,14729,326,-449,-319
29780,-7242,3961,14698,352,-442,-344
29790,-7254,3969,14682,316,-436,-334
29800,-7249,3945,14721,325,-440,-318
29810,-7267,3945,14740,323,-445,-312
29820,-7252,3969,14715,342,-443,-313
29830,-7231,3967,14740,356,-443,-310
29840,-7248,3968,14728,357,-442,-306
29850,-7271,3961,14695,356,-452,-318
29860,-7267,3971,14707,350,-448,-323
29870,-7261,3988,14705,341,-447,-321
29880,-7248,3999,14725,351,-447,-317
29890,-7223,4017,14703,344,-463,-326
29900,-7230,3995,14698,331,-451,-317
29910,-7235,3992,14722,339,-432,-316
29920,-7241,4001,14717,359,-440,-310
29930,-7255,3996,14721,359,-445,-318
29940,-7247,3986,14720,352,-441,-318
29950,-7263,3990,14703,356,-443,-315
29960,-7264,3982,14701,356,-441,-322
29970,-7273,3983,14683,346,-451,-321
29980,-7247,3959,14700,336,-436,-313
29990,-7246,3960,14717,338,-432,-314
30000,-7263,3990,14705,336,-442,-317
30010,-7281,3983,14729,352,-451,-321
30020,-7268,3972,14731,332,-438,-312
30030,-7243,3960,14727,347,-457,-327
30040,-7246,3961,14721,355,-446,-320
30050,-7243,3957,14714,361,-449,-330
30060,-7241,3959,14721,353,-440,-315
30070,-7266,3974,14705,363,-440,-319
30080,-7272,3946,14704,362,-435,-329
30090,-7271,3977,14687,354,-428,-317
30100,-7268,3983,14706,349,-440,-318
30110,-7244,3995,14741,346,-445,-322
30120,-7246,3983,14720,357,-437,-317
30130,-7260,3978,14698,363,-452,-311
30140,-7238,3974,14723,363,-462,-323
30150,-7312,3966,14695,346,-434,-311
30160,-7301,3968,14727,339,-440,-294
30170,-7333,4012,14732,350,-445,-297
30180,-7230,3955,14703,342,-460,-287
30190,-7159,3952,14677,334,-487,-309
30200,-7181,3971,14669,330,-440,-314
30210,-7242,3999,14671,341,-397,-338
30220,-7248,3986,14697,353,-428,-361
30230,-7235,3995,14719,346,-440,-348
30240,-7273,4009,14732,338,-432,-325
30250,-7343,4022,14756,333,-478,-305
30260,-7327,3993,14750,338,-505,-301
30270,-7326,3992,14753,336,-526,-307
30280,-7348,3989,14734,349,-513,-301
30290,-7341,3975,14675,306,-531,-288
30300,-7287,3984,14656,290,-564,-299
30310,-7227,3963,14638,274,-558,-301
30320,-7185,3963,14679,290,-527,-308
30330,-7188,3968,14696,296,-487,-309
30340,-7218,3959,14721,297,-486,-319
30350,-7205,3927,14759,319,-475,-307
30360,-7210,3947,14759,301,-478,-311
30370,-7219,3946,14750,337,-500,-317
30380,-7241,3969,14742,328,-475,-307
30390,-7236,3958,14742,360,-480,-296
30400,-7238,3934,14727,347,-479,-286
30410,-7250,3962,14721,356,-475,-299
30420,-7254,3987,14724,351,-469,-297
30430,-7250,3997,14730,361,-457,-295
30440,-7223,3975,14721,348,-441,-303
30450,-7185,3951,14718,349,-419,-310
30460,-7179,3972,14693,362,-386,-302
30470,-7276,4012,14710,379,-373,-331
30480,-7345,4018,14695,356,-379,-334
30490,-7314,3985,14720,348,-430,-332
30500,-7211,3983,14723,370,-474,-330
30510,-7237,4003,14696,342,-465,-338
30520,-7262,3999,14705,339,-471,-333
30530,-7266,3976,14702,338,-489,-328
30540,-7246,3971,14730,333,-491,-309
30550,-7219,3981,14736,331,-456,-318
30560,-7229,3973,14728,332,-460,-325
30570,-7249,3986,14750,330,-453,-325
30580,-7245,3962,14707,355,-466,-335
30590,-7227,3972,14703,357,-460,-335
30600,-7218,3958,14710,345,-447,-332
30610,-7235,3947,14724,339,-428,-323
30620,-7251,3960,14710,360,-436,-326
30630,-7257,3965,14720,340,-437,-308
30640,-7243,3951,14734,359,-446,-323
30650,-7247,3966,14722,338,-441,-303
30660,-7264,3971,14740,334,-432,-314
30670,-7264,3979,14718,347,-434,-317
30680,-7263,3968,14730,370,-450,-316
30690,-7247,3990,14698,367,-453,-319
30700,-7259,3980,14724,365,-442,-331
30710,-7236,3972,14725,364,-432,-341
30720,-7231,3982,14719,342,-430,-331
30730,-7219,3985,14695,342,-443,-334
30740,-7226,3985,14705,340,-435,-320
30750,-7267,3995,14690,348,-433,-317
30760,-7269,4007,14702,352,-441,-321
30770,-7245,3977,14703,329,-459,-319
30780,-7257,3997,14698,350,-455,-308
30790,-7263,3989,14704,351,-454,-307
30800,-7273,3971,14702,321,-459,-322
30810,-7252,3963,14713,318,-451,-305
30820,-7234,3958,14712,327,-457,-298
30830,-7243,3970,14701,319,-445,-305
30840,-7232,3973,14740,345,-453,-323
30850,-7233,3972,14745,355,-455,-322
30860,-7226,3981,14721,357,-449,-329
30870,-7233,3957,14712,364,-441,-328
30880,-7228,3962,14726,346,-434,-329
30890,-7261,3968,14706,356,-440,-314
30900,-7238,3941,14710,354,-445,-313
30910,-7238,3975,14714,356,-433,-319
30920,-7245,3993,14710,358,-414,-316
30930,-7276,3969,14697,344,-422,-325
30940,-7263,3982,14720,346,-431,-318
30950,-7241,3978,14714,360,-428,-323
30960,-7264,4000,14731,373,-434,-333
30970,-7236,3981,14720,335,-450,-315
30980,-7233,3966,14713,353,-438,-317
30990,-7228,3991,14743,359,-437,-307
31000,-7256,3989,14692,348,-415,-309
31010,-7247,3967,14696,361,-409,-313
31020,-7250,3946,14712,359,-398,-298
31030,-7285,3993,14738,376,-384,-297
31040,-7270,3983,14760,398,-395,-310
31050,-7167,3957,14791,393,-381,-322
31060,-7160,3984,14763,406,-341,-334
31070,-7256,4027,14735,463,-269,-361
31080,-7278,4023,14675,473,-333,-333
31090,-7297,4042,14682,466,-322,-328
31100,-7358,4017,14743,452,-346,-339
31110,-7394,4025,14739,453,-355,-345
31120,-7445,4034,14696,456,-374,-328
31130,-7396,4025,14555,414,-454,-305
31140,-7319,4037,14537,401,-483,-312
31150,-7257,4016,14559,348,-471,-309
31160,-7234,4014,14600,331,-458,-308
31170,-7256,4000,14628,322,-425,-302
31180,-7246,4005,14647,362,-435,-317
31190,-7236,4002,14675,352,-440,-324
31200,-7300,4006,14694,351,-452,-327
31210,-7313,4029,14682,340,-462,-315
31220,-7301,4022,14671,343,-482,-303
31230,-7301,4004,14669,351,-489,-309
31240,-7298,4002,14654,333,-506,-301
31250,-7324,4016,14667,313,-504,-301
31260,-7299,4026,14670,329,-498,-298
31270,-7299,4027,14670,328,-471,-295
31280,-7270,4011,14672,333,-452,-298
31290,-7229,3980,14650,330,-433,-309
31300,-7249,4023,14676,336,-389,-314
31310,-7319,4043,14676,347,-389,-325
31320,-7327,4010,14685,339,-439,-337
31330,-7274,4014,14673,340,-463,-328
31340,-7237,4023,14662,351,-482,-332
31350,-7319,4056,14665,321,-486,-322
31360,-7317,4044,14660,313,-490,-318
31370,-7313,4014,14675,303,-494,-313
31380,-7278,4030,14694,317,-496,-311
31390,-7292,4021,14699,293,-479,-305
31400,-7291,4037,14692,309,-472,-304
31410,-7302,4006,14692,300,-465,-313
31420,-7299,4013,14652,321,-477,-320
31430,-7257,3998,14648,323,-491,-336
31440,-7257,3990,14670,321,-485,-330
31450,-7286,4003,14691,340,-467,-322
31460,-7290,3990,14687,327,-454,-318
31470,-7306,4010,14708,332,-443,-313
31480,-7338,4000,14693,319,-459,-303
31490,-7316,4001,14712,328,-463,-304
31500,-7314,3990,14681,349,-473,-314
31510,-7298,4004,14683,323,-475,-300
31520,-7277,3998,14679,319,-474,-319
31530,-7255,4013,14686,309,-452,-305
31540,-7257,4030,14686,343,-447,-319
31550,-7267,4008,14707,331,-444,-322
31560,-7268,4031,14705,331,-430,-321
31570,-7282,4025,14708,363,-452,-313
31580,-7267,4027,14709,351,-452,-313
31590,-7272,4022,14684,347,-455,-301
31600,-7290,4031,14696,364,-456,-308
31610,-7314,4036,14651,335,-447,-322
31620,-7321,4021,14669,326,-452,-322
31630,-7311,4030,14665,341,-454,-323
31640,-7304,4034,14674,329,-452,-321
31650,-7299,4022,14686,322,-475,-317
31660,-7288,4040,14689,333,-470,-328
31670,-7282,4021,14684,322,-474,-321
31680,-7268,3999,14714,319,-461,-314
31690,-7265,4012,14713,325,-464,-325
31700,-7266,4005,14696,349,-456,-311
31710,-7276,3997,14692,344,-455,-309
31720,-7283,3995,14689,351,-455,-324
31730,-7294,4008,14694,320,-448,-322
31740,-7285,4019,14697,316,-433,-315
31750,-7300,3992,14692,341,-440,-315
31760,-7303,4004,14673,349,-431,-323
31770,-7304,4003,14685,345,-436,-317
31780,-7272,4034,14715,356,-435,-328
31790,-7267,4026,14705,368,-450,-334
31800,-7289,4026,14673,360,-442,-334
31810,-7299,4011,14688,374,-457,-323
31820,-7302,4007,14696,363,-468,-317
31830,-7291,4011,14720,351,-462,-306
31840,-7275,3996,14691,324,-464,-315
31850,-7304,3979,14678,335,-444,-321
