timestamp, ax, ay, az, gx, gy, gz
0,-5819,-4985,14095,308,7366,-10491
10,-13660,-16155,8264,2941,7371,-15780
20,-6448,-16469,6435,13656,1037,-7446
30,-23028,-29453,-15269,22357,-1746,-17724
40,-17658,-20393,-20333,30547,-22679,-13659
50,-21359,-5601,-20824,18176,-26536,-8611
60,-27159,-2860,-14450,7965,-31670,-8663
70,-24845,-428,-6236,1785,-32766,-4493
80,-25943,-8510,13013,-255,-29618,-1513
90,-30779,-14001,14355,3961,-19709,3713
100,-22836,-16218,15340,6779,-13238,15470
110,-14760,-7617,9559,-11445,-5458,-7126
120,-16421,-6743,10646,-14844,-8663,-9512
130,-17684,-6905,10160,-14801,-9636,-8318
140,-13810,-6073,2206,-13047,-8139,1008
150,-11006,-6635,986,-17207,-9572,1244
160,-8394,-6917,1118,-22354,-14250,-3299
170,-7211,-6534,345,-26253,-18052,-17726
180,-3257,-5699,1050,-27457,-17753,-23346
190,-770,-5413,2101,-27930,-16412,-28549
200,-2426,-5422,1997,-26445,-14032,-32183
210,-6791,-6369,3266,-27102,-5929,-32766
220,-13334,-8186,5002,-26902,-2083,-31708
230,-29612,-15573,15977,-25512,-2595,-12885
240,-32764,-21320,20504,-9496,-15257,4337
250,-31098,-23933,18461,1860,-23884,18421
260,-22784,-20766,12858,12185,-22611,26978
270,-6303,-5395,2226,23799,5461,32762
280,-3406,-7562,3832,24223,12210,31476
290,-2213,-4844,1702,24847,15762,24096
300,-13567,-3478,7212,18814,16423,3094
310,-19207,-4327,10705,18379,15057,1174
320,-18772,-4068,7410,19171,12620,4435
330,-12906,-1664,7098,5378,548,4075
340,-10996,-1554,7910,-1443,-321,3091
350,-16117,-3595,8594,-5653,-2243,-2150
360,-15069,-3977,4865,-2652,-9157,-4773
370,-11410,-603,7165,-3804,-11701,-5278
380,-12404,-2178,10621,-4622,-12842,-6607
390,-15912,-6889,11583,-3048,-11822,-6224
400,-12394,-9463,9711,-1654,-4911,1989
410,-11543,-11887,9863,-2316,-4720,4308
420,-13678,-12930,7449,-963,-4367,4393
430,-12964,-11752,5746,116,-3941,4540
440,-16128,-8635,7454,1399,-3526,72
450,-16215,-8259,8491,2034,-3214,105
460,-14297,-8732,9029,1287,-5786,1572
470,-12784,-7329,8665,1543,-6672,2233
480,-11355,-5661,8901,2607,-7578,2536
490,-11337,-4906,9924,3795,-7732,1886
500,-11964,-5818,10714,3766,-7651,1346
510,-11995,-6706,10337,3131,-6177,314
520,-10484,-5396,8647,2466,-3217,230
530,-11167,-5237,8111,1546,1452,-407
540,-12399,-5529,8171,1074,325,-824
550,-12345,-5894,9099,490,-788,-319
560,-10604,-6093,10570,-628,403,558
570,-10189,-5006,10101,-688,1271,299
580,-11624,-5027,8648,-359,1625,-955
590,-11166,-6093,9166,-1324,1470,-445
600,-9832,-6532,9616,-739,3067,729
610,-11756,-6472,10302,61,5212,780
620,-13284,-6026,10216,339,6391,469
630,-14239,-6845,9832,-15,8172,786
640,-14576,-6905,9698,22,7754,979
650,-14861,-6424,8926,335,7270,1043
660,-14733,-6598,7885,503,6261,611
670,-14412,-6741,7614,313,7310,984
680,-14182,-6487,6939,-146,9270,1490
690,-13336,-5471,5968,-1939,11977,2046
700,-13497,-5312,6069,-2548,11752,1956
710,-14258,-5616,6386,-2652,11040,1775
720,-16636,-6797,5616,-2770,12704,2167
730,-16367,-6168,5287,-3186,14224,2713
740,-16378,-5500,5287,-3363,15078,2845
750,-14123,-4232,5562,-1934,13259,4132
760,-11649,-3921,2699,5298,-3062,2821
770,-11737,-4405,3478,5114,-11777,1207
780,-13314,-4716,4882,3131,-13497,-601
790,-14009,-5106,6588,1673,-10256,-1045
800,-12473,-5464,4943,12311,-1258,727
810,-12068,-6563,2664,14239,-3051,462
820,-15615,-4896,7008,4952,-7848,-2639
830,-14029,-6479,8301,-1710,837,-649
840,-13110,-5803,6853,-1334,3509,378
850,-13212,-5122,5713,-845,3487,30
860,-14952,-5221,4453,-883,2280,-1243
870,-15510,-5655,5083,-1412,1708,-1183
880,-15068,-5836,5534,-1413,1139,-712
890,-13303,-5429,7365,-2014,1381,-25
900,-13342,-5170,6948,-1740,4487,522
910,-14880,-4766,5883,-835,3973,2535
920,-16947,-4319,5888,-1002,4724,810
930,-17944,-5101,5375,-1088,3143,-1280
940,-17391,-5908,4548,-244,2138,-1839
950,-16509,-5910,4300,288,405,-1965
960,-15357,-4757,4306,629,-3362,-2455
970,-14982,-4747,4340,572,-4926,-2994
980,-14577,-5043,4730,188,-6028,-3350
990,-14716,-5058,5070,-174,-6733,-3622
1000,-13787,-5869,5369,-388,-6726,-3088
1010,-12992,-6657,6318,-750,-5208,-2211
1020,-12940,-7355,7270,-733,-2502,-1256
1030,-13849,-6090,5678,158,3429,137
1040,-14568,-5892,4997,157,4400,205
1050,-15152,-6315,4054,519,3981,-59
1060,-16238,-6238,3429,375,2022,-702
1070,-14656,-6641,5875,-997,-1264,-962
1080,-13836,-6362,5847,-799,-632,-317
1090,-14148,-6333,5061,-357,433,-27
1100,-14814,-6111,4721,-411,593,55
1110,-14590,-6022,4476,-318,460,-29
1120,-14663,-6023,3948,57,339,-288
1130,-14940,-6121,4499,494,-457,-194
1140,-14872,-5975,4922,593,-743,-46
1150,-14799,-5839,5119,705,-769,27
1160,-14824,-5616,5274,770,-583,88
1170,-14830,-5511,5356,700,-574,81
1180,-14859,-5500,5490,617,-621,70
1190,-14379,-5476,5546,737,-833,125
1200,-14012,-5343,5495,812,-1012,251
1210,-13794,-5193,5679,745,-1055,472
1220,-13884,-5109,5985,583,-943,611
1230,-14675,-5073,6390,257,-205,631
1240,-15142,-5149,6264,143,355,526
1250,-15380,-5273,5891,66,800,436
1260,-15625,-5490,5160,-86,872,448
1270,-15546,-5579,4880,-136,516,512
1280,-15271,-5646,4756,-140,224,539
1290,-14200,-5619,4675,155,-725,524
1300,-14228,-6026,4664,357,-1371,350
1310,-14160,-6449,4809,493,-1752,502
1320,-13473,-5693,5716,504,-1658,803
1330,-14497,-5804,5814,540,-261,735
1340,-14934,-5844,5452,458,71,857
1350,-15186,-5832,5190,305,144,978
1360,-15771,-5937,4745,214,-1044,739
1370,-15319,-5597,4790,170,-869,769
1380,-14969,-5551,5079,359,-940,865
1390,-15253,-5908,5109,847,-307,201
1400,-15263,-5905,4707,1174,-819,136
1410,-15239,-5895,4722,1346,-1721,185
1420,-14510,-5081,5637,1528,-2893,742
1430,-13883,-4328,5975,1508,-2907,879
1440,-14189,-4017,6316,1434,-2483,602
1450,-14473,-4607,6595,851,-749,59
1460,-14702,-4553,6729,821,-827,-32
1470,-15320,-4519,6489,1009,-668,-190
1480,-15710,-4189,6213,1078,-286,-279
1490,-15440,-3943,5792,484,140,-712
1500,-15184,-4084,5657,13,277,-978
1510,-15005,-3988,5495,-226,482,-1276
1520,-14593,-4530,4905,-692,681,-1718
1530,-14328,-4812,4997,-779,414,-1669
1540,-14358,-5205,5046,-837,704,-1586
1550,-14614,-5530,5186,-754,862,-1431
1560,-15178,-5677,5278,-173,838,-1391
1570,-15100,-5482,5027,98,696,-1353
1580,-14751,-5304,4966,251,487,-1195
1590,-13975,-4962,5243,186,422,-872
1600,-13820,-4882,5228,50,562,-763
1610,-13804,-4910,4880,-132,746,-691
1620,-14033,-5077,4444,-195,665,-643
1630,-14881,-5457,4590,-200,350,-400
1640,-15082,-5382,4709,-174,217,-275
1650,-15567,-5647,4951,-300,441,-264
1660,-15737,-5810,4967,-373,496,-287
1670,-15813,-5974,4920,-420,451,-292
1680,-15831,-6084,5009,-465,348,-272
1690,-15545,-6057,4868,-456,47,-196
1700,-15302,-5947,4862,-400,-179,-220
1710,-15010,-5878,4803,-333,-358,-220
1720,-14347,-5317,5023,-304,-488,-220
1730,-14147,-5152,5034,-308,-341,-175
1740,-14092,-5136,5072,-319,-144,-141
1750,-14442,-5334,5049,-311,59,-82
1760,-14579,-5530,4895,-318,475,8
1770,-14728,-5663,4914,-318,581,109
1780,-14809,-5705,4951,-338,629,211
1790,-14877,-5831,4783,-267,623,357
1800,-14924,-5987,4733,-224,516,394
1810,-15063,-6050,4725,-138,363,392
1820,-15036,-5975,4682,3,220,331
1830,-15060,-5913,4541,239,92,7
1840,-15082,-5844,4514,328,34,-92
1850,-15069,-5719,4468,415,-80,-159
1860,-15212,-5400,4297,543,-154,-295
1870,-15408,-4938,4347,599,-226,-316
1880,-15439,-4933,4400,579,-217,-338
1890,-15603,-4985,4400,515,-137,-291
1900,-15645,-4989,4384,536,-186,-310
1910,-15578,-4940,4348,510,-248,-306
1920,-15497,-4866,4452,477,-351,-316
1930,-15297,-4853,4456,450,-491,-454
1940,-15144,-4934,4475,427,-530,-530
1950,-15032,-5038,4535,414,-546,-580
1960,-14965,-5290,4635,436,-536,-618
1970,-14983,-5385,4671,420,-534,-625
1980,-14966,-5472,4642,396,-531,-627
1990,-14806,-5484,4644,370,-563,-655
2000,-14771,-5516,4693,324,-553,-659
2010,-14783,-5571,4736,304,-541,-688
2020,-15043,-5564,4676,311,-498,-700
2030,-14935,-5499,4647,298,-420,-679
2040,-14965,-5412,4600,291,-411,-671
2050,-15035,-5367,4572,273,-385,-703
2060,-15170,-5343,4539,171,-313,-735
2070,-15166,-5378,4501,108,-286,-735
2080,-15110,-5389,4408,52,-224,-721
2090,-15114,-5481,4274,14,-169,-710
2100,-15064,-5688,4259,-37,-199,-661
2110,-15022,-5713,4261,-41,-223,-622
2120,-14853,-5689,4153,-40,-261,-566
2130,-14772,-5718,4156,-35,-308,-570
2140,-14806,-5798,4164,-25,-305,-538
2150,-14955,-5898,4104,52,-310,-516
2160,-14883,-5880,4109,115,-363,-501
2170,-14809,-5889,4120,168,-415,-474
2180,-14910,-5857,4347,277,-508,-425
2190,-14976,-5822,4438,325,-531,-392
2200,-14970,-5773,4495,339,-523,-333
2210,-15013,-5738,4530,352,-486,-295
2220,-15074,-5703,4433,365,-435,-263
2230,-15069,-5690,4411,398,-453,-248
2240,-15017,-5655,4434,413,-512,-234
2250,-14907,-5638,4468,434,-568,-230
2260,-14902,-5594,4544,510,-545,-248
2270,-15008,-5570,4559,527,-496,-241
2280,-15106,-5536,4547,536,-486,-242
2290,-15106,-5544,4437,558,-478,-279
2300,-15068,-5536,4455,553,-506,-267
2310,-14989,-5479,4433,552,-521,-252
2320,-14870,-5468,4524,533,-484,-226
2330,-14926,-5496,4491,517,-434,-229
2340,-14982,-5548,4477,489,-404,-233
2350,-15076,-5589,4418,456,-402,-259
2360,-15055,-5600,4403,448,-424,-287
2370,-15060,-5579,4383,467,-441,-296
2380,-14979,-5581,4510,437,-489,-354
2390,-14995,-5581,4494,460,-483,-354
2400,-15021,-5566,4480,470,-490,-350
2410,-15007,-5499,4470,423,-512,-319
2420,-15008,-5497,4468,401,-492,-311
2430,-15039,-5507,4445,376,-486,-326
2440,-15057,-5512,4446,345,-489,-324
2450,-14920,-5538,4516,336,-543,-342
2460,-14919,-5525,4547,305,-535,-339
2470,-14881,-5536,4594,292,-514,-343
2480,-14894,-5506,4569,247,-496,-362
2490,-14916,-5509,4626,226,-507,-377
2500,-14931,-5559,4609,208,-482,-387
2510,-14986,-5656,4503,258,-457,-445
2520,-14994,-5650,4527,275,-469,-442
2530,-14995,-5599,4562,310,-485,-437
2540,-15034,-5487,4488,345,-525,-470
2550,-15030,-5471,4494,349,-562,-485
2560,-14960,-5503,4545,335,-570,-490
2570,-14998,-5581,4583,332,-545,-479
2580,-15146,-5622,4434,342,-545,-482
2590,-15129,-5584,4385,341,-596,-477
2600,-15025,-5546,4520,318,-646,-445
2610,-14949,-5526,4547,303,-619,-379
2620,-14974,-5519,4585,256,-535,-311
2630,-15018,-5618,4595,234,-466,-230
2640,-15066,-5660,4582,252,-451,-226
2650,-15090,-5720,4476,269,-434,-233
2660,-15022,-5819,4434,344,-525,-283
2670,-14994,-5866,4449,384,-543,-274
2680,-14947,-5858,4467,411,-574,-258
2690,-14873,-5832,4229,418,-493,-254
2700,-14766,-5839,4342,475,-609,-181
2710,-14750,-5819,4366,513,-616,-166
2720,-14804,-5854,4387,544,-599,-177
2730,-14775,-5791,4352,577,-623,-139
2740,-14739,-5788,4406,595,-659,-125
2750,-14787,-5768,4405,655,-654,-110
2760,-14812,-5727,4437,661,-640,-97
2770,-14950,-5672,4480,713,-644,-90
2780,-15014,-5642,4492,722,-657,-74
2790,-15012,-5606,4522,750,-678,-65
2800,-15039,-5571,4593,781,-708,-74
2810,-15002,-5445,4687,790,-729,-57
2820,-14868,-5260,4817,701,-627,-79
2830,-14850,-5250,4857,668,-583,-96
2840,-14907,-5275,4896,631,-519,-118
2850,-15184,-5413,4790,571,-431,-162
2860,-15256,-5443,4758,531,-455,-171
2870,-15194,-5434,4706,542,-496,-202
2880,-15052,-5393,4690,546,-507,-228
2890,-14869,-5265,4813,521,-475,-236
2900,-14843,-5236,4916,463,-392,-215
2910,-14852,-5218,4947,409,-306,-201
2920,-14927,-5213,4930,298,-89,-213
2930,-14990,-5209,4854,288,-28,-263
2940,-15092,-5243,4772,246,-1,-316
2950,-15117,-5237,4722,204,-16,-353
2960,-15084,-5219,4682,183,-63,-422
2970,-15044,-5227,4672,161,-42,-430
2980,-15027,-5228,4647,132,-36,-423
2990,-15075,-5176,4621,126,-1,-417
3000,-15076,-5131,4583,110,3,-408
3010,-15040,-5077,4619,31,22,-402
3020,-15076,-5109,4587,-32,50,-422
3030,-15102,-5198,4433,-116,81,-454
3040,-15129,-5239,4373,-133,58,-472
3050,-15103,-5300,4355,-160,32,-476
3060,-15101,-5538,4456,-174,-6,-484
3070,-15139,-5624,4401,-138,-16,-443
3080,-15090,-5671,4329,-129,-34,-392
3090,-15072,-5671,4236,-105,-56,-276
3100,-15019,-5635,4250,-104,-127,-254
3110,-14988,-5581,4204,-88,-163,-234
3120,-14859,-5625,4185,-113,-232,-223
3130,-14776,-5693,4184,-118,-251,-219
3140,-14783,-5773,4230,-127,-227,-200
3150,-14840,-5972,4280,-127,-220,-188
3160,-14894,-6014,4279,-48,-254,-179
3170,-14968,-6014,4295,-24,-285,-171
3180,-14998,-6038,4290,44,-350,-172
3190,-14975,-6018,4300,184,-465,-174
3200,-14971,-6032,4333,261,-517,-171
3210,-14982,-6009,4384,335,-566,-169
3220,-15120,-5868,4363,461,-536,-196
3230,-15305,-5874,4196,523,-526,-210
3240,-15227,-5584,4297,584,-557,-151
3250,-15328,-5414,4168,612,-426,-181
3260,-15217,-5143,4058,621,-470,-185
3270,-15206,-5043,4182,623,-546,-147
3280,-15234,-4980,4218,602,-549,-106
3290,-15321,-4903,4271,583,-609,-59
3300,-15356,-4858,4388,563,-647,-53
3310,-15348,-4817,4098,533,-648,-72
3320,-15121,-4882,4470,464,-719,-53
3330,-15039,-4966,4512,471,-744,-56
3340,-14992,-5109,4451,400,-671,-52
3350,-14890,-5454,4463,357,-610,-76
3360,-14781,-5519,4441,373,-564,-79
3370,-14821,-5562,4405,377,-493,-105
3380,-14963,-5729,4341,367,-467,-152
3390,-15064,-5818,4323,408,-484,-240
3400,-15158,-5851,4384,424,-478,-228
3410,-15103,-5785,4440,433,-521,-179
3420,-15084,-5685,4517,419,-509,-134
3430,-15090,-5567,4493,389,-472,-93
3440,-15066,-5444,4490,384,-444,-79
3450,-15015,-5343,4445,374,-429,-97
3460,-15011,-5190,4432,360,-378,-165
3470,-15007,-5285,4397,316,-329,-152
3480,-14982,-5408,4339,300,-269,-93
3490,-14883,-5556,4403,253,-203,167
3500,-14857,-5599,4433,220,-201,293
3510,-14853,-5593,4422,210,-207,368
3520,-14866,-5465,4541,293,-317,392
3530,-14928,-5383,4546,333,-333,355
3540,-14975,-5318,4529,351,-348,296
3550,-15149,-5209,4481,418,-442,146
3560,-15253,-5184,4406,429,-379,76
3570,-15413,-5154,4236,465,-358,-27
3580,-15389,-5083,4212,486,-413,-81
3590,-15313,-5016,4164,516,-468,-171
3600,-15355,-4910,4165,533,-502,-250
3610,-15476,-4743,4187,559,-503,-317
3620,-15526,-4687,4124,505,-460,-293
3630,-15512,-4630,4103,492,-469,-299
3640,-15436,-4617,4167,423,-445,-301
3650,-15338,-4639,4176,394,-457,-299
3660,-15245,-4696,4232,359,-470,-297
3670,-15308,-4872,4373,336,-489,-312
3680,-15319,-4933,4415,327,-527,-329
3690,-15313,-4988,4440,317,-526,-335
3700,-15245,-5097,4525,308,-574,-382
3710,-15236,-5138,4550,321,-600,-407
3720,-15216,-5169,4557,328,-628,-400
3730,-15210,-5181,4562,342,-659,-390
3740,-15110,-5156,4492,320,-669,-425
3750,-15023,-5168,4446,334,-680,-438
3760,-14991,-5231,4423,327,-696,-449
3770,-15008,-5347,4438,307,-671,-459
3780,-15061,-5389,4425,295,-633,-445
3790,-15122,-5422,4398,276,-546,-427
3800,-15173,-5397,4402,272,-515,-423
3810,-15216,-5401,4382,280,-518,-429
3820,-15181,-5349,4319,260,-530,-417
3830,-15165,-5281,4374,260,-576,-417
3840,-15114,-5220,4391,261,-602,-412
3850,-14997,-5171,4452,263,-605,-410
3860,-14993,-5153,4466,285,-588,-404
3870,-15008,-5143,4507,288,-563,-385
3880,-15039,-5132,4540,268,-550,-370
3890,-15091,-5139,4559,317,-557,-352
3900,-15097,-5152,4568,318,-549,-363
3910,-15123,-5157,4575,320,-541,-365
3920,-15140,-5152,4576,337,-536,-365
3930,-15141,-5220,4585,376,-560,-352
3940,-15095,-5230,4598,410,-576,-338
3950,-15099,-5226,4609,383,-560,-308
3960,-15112,-5253,4538,381,-529,-296
3970,-15108,-5254,4496,360,-502,-279
3980,-15082,-5242,4487,379,-477,-282
3990,-15083,-5261,4459,400,-445,-283
4000,-15030,-5358,4419,381,-423,-287
4010,-15042,-5430,4428,391,-411,-273
4020,-15029,-5494,4482,377,-408,-269
4030,-15039,-5450,4441,423,-403,-256
4040,-15046,-5417,4395,440,-395,-257
4050,-15043,-5312,4421,473,-397,-254
4060,-15108,-5124,4461,484,-478,-200
4070,-15143,-5055,4491,481,-482,-183
4080,-15167,-5034,4484,482,-462,-178
4090,-15193,-5121,4440,418,-424,-151
4100,-15179,-5161,4415,420,-442,-153
4110,-15134,-5219,4399,358,-425,-134
4120,-15114,-5238,4375,359,-439,-121
4130,-15114,-5175,4466,362,-456,-83
4140,-15160,-5139,4499,385,-483,-88
4150,-15204,-5131,4525,397,-510,-103
4160,-15212,-5093,4562,383,-509,-125
4170,-15251,-5142,4393,384,-505,-167
4180,-15157,-5170,4411,363,-516,-137
4190,-15103,-5190,4465,349,-538,-129
4200,-15100,-5173,4484,328,-520,-112
4210,-15117,-5137,4503,299,-533,-134
4220,-15169,-5095,4510,293,-515,-172
4230,-15240,-5044,4498,274,-501,-212
4240,-15213,-5011,4512,284,-531,-242
4250,-15169,-5001,4550,296,-553,-269
4260,-15118,-5032,4592,346,-575,-305
4270,-15164,-5036,4616,356,-564,-312
4280,-15187,-4922,4668,383,-567,-328
4290,-15254,-4937,4630,381,-515,-366
4300,-15277,-4929,4549,371,-531,-353
4310,-15184,-4982,4594,340,-562,-372
4320,-15119,-5032,4561,320,-529,-373
4330,-15130,-5090,4492,309,-499,-345
4340,-15124,-5119,4468,305,-489,-346
4350,-15106,-5194,4473,286,-487,-356
4360,-15094,-5219,4503,314,-505,-371
4370,-15145,-5258,4558,317,-514,-374
4380,-15088,-5215,4512,314,-519,-364
4390,-15079,-5216,4516,306,-525,-357
4400,-15037,-5225,4503,309,-526,-352
4410,-15061,-5223,4553,318,-528,-344
4420,-15087,-5201,4563,313,-508,-299
4430,-15116,-5211,4542,334,-509,-297
4440,-15136,-5188,4561,323,-511,-304
4450,-15111,-5155,4551,344,-522,-289
4460,-15073,-5126,4572,362,-507,-284
4470,-15084,-5136,4560,368,-496,-275
4480,-15122,-5148,4577,379,-486,-279
4490,-15132,-5160,4582,384,-466,-256
4500,-15118,-5175,4572,406,-463,-268
4510,-15038,-5122,4521,395,-443,-253
4520,-15047,-5126,4530,398,-448,-265
4530,-15072,-5144,4567,397,-451,-284
4540,-15137,-5163,4583,378,-434,-279
4550,-15212,-5118,4580,399,-433,-270
4560,-15164,-5091,4574,418,-477,-287
4570,-15099,-5016,4599,425,-500,-289
4580,-15179,-5000,4647,399,-456,-290
4590,-15209,-5001,4647,392,-465,-311
4600,-15268,-5047,4599,400,-451,-315
4610,-15247,-5090,4537,382,-488,-282
4620,-15232,-5080,4584,366,-520,-266
4630,-15176,-5063,4610,375,-551,-281
4640,-15105,-5021,4560,373,-542,-271
4650,-15079,-5094,4600,353,-491,-287
4660,-15074,-5096,4565,369,-469,-301
4670,-15054,-5088,4562,368,-456,-293
4680,-15102,-5090,4545,368,-454,-306
4690,-15094,-5104,4538,380,-455,-315
4700,-15097,-5106,4545,367,-453,-305
4710,-15116,-5107,4552,378,-449,-303
4720,-15142,-5123,4622,373,-455,-294
4730,-15174,-5140,4594,362,-427,-285
4740,-15110,-5086,4572,360,-454,-324
4750,-15122,-5057,4585,358,-438,-332
4760,-15094,-5082,4589,364,-438,-338
4770,-15163,-5072,4594,339,-422,-323
4780,-15170,-5082,4586,350,-426,-349
4790,-15177,-5117,4583,342,-425,-344
4800,-15159,-5141,4611,352,-396,-322
4810,-15143,-5128,4535,367,-411,-316
4820,-15098,-5123,4535,344,-456,-322
4830,-15049,-5104,4603,354,-474,-319
4840,-15071,-5132,4632,377,-488,-340
4850,-15066,-5138,4645,384,-455,-331
4860,-15063,-5133,4613,379,-442,-337
4870,-15038,-5134,4516,429,-464,-371
4880,-15050,-5186,4480,442,-505,-384
4890,-15108,-5254,4533,460,-536,-389
4900,-15266,-5204,4590,579,-601,-375
4910,-15251,-5093,4587,645,-594,-429
4920,-15277,-4965,4529,648,-567,-494
4930,-15275,-4911,4425,580,-637,-678
4940,-15209,-4966,4432,510,-716,-676
4950,-15087,-4983,4566,416,-747,-585
4960,-15055,-4979,4661,354,-685,-460
4970,-15187,-5081,4643,268,-487,-327
4980,-15282,-5081,4655,238,-438,-296
4990,-15395,-4923,4551,310,-489,-371
5000,-15258,-4902,4642,360,-599,-456
5010,-15114,-4942,4839,371,-653,-500
5020,-15083,-5047,5039,326,-569,-438
5030,-15083,-5053,5024,270,-472,-415
5040,-15152,-5088,4949,232,-446,-460
5050,-14992,-5295,4740,199,-442,-500
5060,-14843,-5243,4643,212,-493,-552
5070,-14786,-5312,4663,220,-493,-561
5080,-14769,-5341,4629,234,-495,-581
5090,-14912,-5410,4622,249,-413,-591
5100,-14976,-5407,4608,246,-403,-585
5110,-14996,-5360,4583,242,-381,-564
5120,-14986,-5307,4514,232,-356,-540
5130,-14995,-5295,4508,181,-320,-509
5140,-14994,-5300,4513,177,-334,-495
5150,-15046,-5323,4524,170,-322,-464
5160,-15067,-5269,4530,166,-387,-382
5170,-14976,-5141,4758,135,-418,-382
5180,-15064,-5179,4642,147,-299,-451
5190,-15132,-5150,4649,103,-267,-467
5200,-15236,-5114,4594,141,-269,-449
5210,-15240,-5105,4592,157,-296,-451
5220,-15181,-5062,4533,158,-330,-463
5230,-15200,-5100,4532,175,-358,-493
5240,-15200,-5156,4552,196,-351,-505
5250,-15183,-5191,4586,219,-343,-495
5260,-15151,-5288,4477,288,-370,-509
5270,-15115,-5324,4478,290,-410,-477
5280,-15067,-5341,4488,293,-447,-457
5290,-15059,-5381,4510,329,-473,-442
5300,-15046,-5465,4489,338,-445,-436
5310,-15026,-5530,4416,336,-444,-425
5320,-14999,-5580,4405,350,-475,-413
5330,-14935,-5590,4516,341,-540,-377
5340,-14919,-5551,4578,352,-547,-367
5350,-14949,-5554,4587,366,-547,-357
5360,-14972,-5479,4586,377,-517,-334
5370,-14977,-5449,4585,367,-500,-317
5380,-14947,-5408,4582,391,-499,-305
5390,-14992,-5370,4613,412,-519,-283
5400,-15041,-5369,4614,384,-517,-252
5410,-15078,-5357,4604,402,-522,-238
5420,-15129,-5321,4572,401,-531,-206
5430,-15156,-5258,4550,442,-579,-228
5440,-15108,-5225,4506,434,-591,-218
5450,-15102,-5203,4559,388,-584,-189
5460,-15056,-5154,4583,361,-603,-193
5470,-14983,-5146,4599,341,-585,-192
5480,-15006,-5200,4589,328,-555,-209
5490,-15067,-5252,4588,300,-554,-208
5500,-15112,-5313,4592,330,-558,-219
5510,-15140,-5366,4629,372,-594,-222
5520,-15133,-5366,4615,370,-583,-213
5530,-15125,-5350,4627,415,-630,-241
5540,-15079,-5313,4634,427,-650,-248
5550,-15028,-5199,4668,465,-677,-266
5560,-15021,-5159,4682,482,-694,-295
5570,-14981,-5171,4681,472,-695,-318
5580,-15006,-5178,4724,435,-686,-320
5590,-15112,-5284,4705,422,-624,-342
5600,-15180,-5317,4713,397,-630,-336
5610,-15173,-5280,4669,418,-663,-359
5620,-15086,-5222,4671,433,-718,-400
5630,-15045,-5246,4689,410,-726,-399
5640,-15032,-5271,4821,406,-702,-386
5650,-14998,-5272,4840,412,-632,-346
5660,-15002,-5286,4754,371,-509,-280
5670,-15035,-5308,4734,357,-486,-272
5680,-15094,-5309,4721,335,-451,-254
5690,-14951,-5278,4680,411,-516,-266
5700,-14994,-5347,4553,405,-444,-268
5710,-14883,-5295,4592,437,-516,-238
5720,-14900,-5299,4593,509,-554,-236
5730,-14896,-5275,4677,512,-566,-234
5740,-14997,-5218,4698,525,-552,-209
5750,-15036,-5219,4705,537,-560,-223
5760,-15032,-5201,4765,556,-560,-211
5770,-15078,-5193,4835,559,-569,-197
5780,-15045,-5164,4851,540,-542,-198
5790,-15053,-5162,4869,519,-520,-196
5800,-15085,-5178,4899,492,-482,-212
5810,-15074,-5156,4952,493,-490,-238
5820,-15056,-5179,4966,465,-483,-250
5830,-15015,-5169,4991,415,-455,-245
5840,-14953,-5186,5008,375,-366,-251
5850,-14974,-5194,4946,356,-325,-267
5860,-14985,-5210,4872,316,-294,-264
5870,-15009,-5256,4846,290,-285,-266
5880,-15093,-5251,4787,297,-250,-232
5890,-15090,-5223,4788,290,-232,-227
5900,-15051,-5165,4716,306,-226,-252
5910,-15061,-5102,4581,287,-261,-308
5920,-15059,-5075,4568,300,-301,-343
5930,-15053,-5119,4624,287,-310,-313
5940,-15048,-5145,4609,274,-302,-301
5950,-15084,-5158,4630,258,-319,-279
5960,-15134,-5200,4655,258,-323,-273
5970,-15142,-5219,4696,246,-328,-302
5980,-15177,-5232,4691,259,-328,-307
5990,-15191,-5245,4644,283,-333,-316
6000,-15153,-5235,4645,301,-414,-339
6010,-15092,-5185,4670,304,-434,-325
6020,-15051,-5151,4699,293,-440,-329
6030,-15006,-5151,4705,281,-431,-328
6040,-14979,-5197,4683,279,-393,-327
6050,-15039,-5228,4662,278,-377,-327
6060,-15127,-5257,4670,309,-419,-332
6070,-15116,-5272,4630,318,-459,-336
6080,-15078,-5258,4576,339,-498,-336
6090,-14961,-5196,4656,353,-529,-346
6100,-14937,-5191,4674,358,-541,-321
6110,-14938,-5181,4689,358,-507,-300
6120,-14994,-5226,4737,344,-486,-285
6130,-15156,-5271,4673,351,-460,-293
6140,-15164,-5262,4709,345,-478,-294
6150,-15101,-5221,4729,331,-490,-306
6160,-15048,-5178,4662,348,-493,-323
6170,-15079,-5177,4709,335,-512,-312
6180,-15087,-5176,4718,343,-503,-300
6190,-15098,-5200,4724,354,-510,-297
6200,-15057,-5192,4716,342,-504,-290
6210,-15070,-5188,4679,337,-492,-303
6220,-15087,-5208,4722,348,-516,-313
6230,-15068,-5175,4725,358,-524,-326
6240,-15057,-5177,4745,353,-510,-312
6250,-15052,-5199,4753,352,-495,-314
6260,-15075,-5186,4760,354,-479,-329
6270,-15083,-5207,4735,348,-469,-332
6280,-15066,-5214,4732,365,-482,-337
6290,-15070,-5198,4648,388,-502,-335
6300,-15078,-5187,4627,372,-499,-328
6310,-15035,-5169,4670,384,-521,-325
6320,-15022,-5160,4704,397,-523,-326
6330,-15081,-5181,4756,424,-506,-331
6340,-15096,-5183,4792,417,-485,-334
6350,-15159,-5195,4782,408,-456,-335
6360,-15149,-5209,4705,397,-460,-338
6370,-15107,-5213,4713,419,-486,-346
6380,-15077,-5182,4711,425,-510,-349
6390,-14963,-5147,4805,419,-527,-348
6400,-14970,-5164,4818,400,-513,-345
6410,-14996,-5190,4836,370,-458,-345
6420,-14996,-5219,4844,345,-423,-344
6430,-15016,-5240,4836,341,-393,-333
6440,-14987,-5236,4818,346,-403,-339
6450,-14984,-5221,4783,302,-360,-332
6460,-15014,-5237,4787,296,-356,-343
6470,-15022,-5216,4771,291,-351,-358
6480,-15036,-5220,4785,296,-338,-354
6490,-15069,-5241,4725,289,-324,-347
6500,-15090,-5261,4681,264,-314,-329
6510,-15109,-5257,4639,278,-322,-335
6520,-15071,-5221,4580,312,-355,-335
6530,-15049,-5221,4584,319,-393,-362
6540,-14987,-5169,4603,316,-387,-359
6550,-15003,-5187,4652,297,-348,-335
6560,-15008,-5224,4663,296,-336,-328
6570,-15055,-5263,4672,310,-323,-330
6580,-15101,-5272,4662,319,-328,-324
6590,-15143,-5284,4647,351,-367,-324
6600,-15120,-5242,4662,361,-411,-324
6610,-15103,-5212,4695,401,-436,-333
6620,-15144,-5211,4729,432,-441,-303
6630,-15160,-5226,4731,425,-438,-293
6640,-15069,-5238,4522,428,-467,-265
6650,-15043,-5247,4640,418,-527,-257
6660,-15061,-5238,4664,423,-529,-253
6670,-15038,-5232,4658,418,-525,-240
6680,-15032,-5196,4730,404,-530,-223
6690,-15023,-5205,4780,347,-502,-211
6700,-15042,-5165,4817,311,-478,-223
6710,-15086,-5176,4795,289,-449,-229
6720,-15127,-5187,4729,234,-451,-234
6730,-15084,-5147,4729,207,-480,-234
6740,-15079,-5141,4788,216,-507,-227
6750,-15038,-5088,4813,199,-502,-260
6760,-15041,-5089,4818,187,-479,-289
6770,-15039,-5088,4791,192,-451,-300
6780,-15040,-5120,4741,182,-432,-316
6790,-15067,-5174,4641,207,-408,-336
6800,-15094,-5178,4629,263,-432,-373
6810,-15118,-5200,4593,290,-456,-393
6820,-15114,-5173,4576,326,-485,-407
6830,-15126,-5181,4577,356,-489,-418
6840,-15104,-5193,4576,362,-493,-426
6850,-15083,-5221,4603,389,-500,-429
6860,-15049,-5247,4599,425,-492,-408
6870,-15073,-5266,4609,409,-490,-401
6880,-15054,-5251,4650,412,-485,-389
6890,-15016,-5217,4700,461,-509,-404
6900,-15006,-5204,4733,449,-520,-392
6910,-15039,-5186,4777,440,-512,-376
6920,-15041,-5241,4770,409,-514,-338
6930,-15007,-5254,4788,392,-525,-344
6940,-15038,-5276,4797,377,-522,-315
6950,-15039,-5278,4785,354,-525,-283
6960,-15060,-5262,4814,373,-520,-275
6970,-15037,-5232,4802,354,-524,-293
6980,-15034,-5218,4768,345,-513,-302
6990,-15099,-5211,4752,312,-465,-304
7000,-15103,-5207,4719,274,-467,-284
7010,-15072,-5194,4691,254,-449,-266
7020,-15026,-5205,4673,264,-456,-261
7030,-15002,-5193,4675,263,-468,-260
7040,-14984,-5216,4683,255,-465,-268
7050,-14982,-5232,4740,251,-455,-281
7060,-15058,-5235,4739,289,-433,-296
7070,-15079,-5262,4719,313,-438,-295
7080,-15060,-5228,4738,338,-450,-309
7090,-15017,-5211,4742,374,-445,-308
7100,-15004,-5177,4763,390,-449,-316
7110,-15080,-5194,4711,390,-419,-314
7120,-15105,-5187,4741,392,-420,-332
7130,-15120,-5188,4743,417,-433,-331
7140,-15094,-5202,4723,433,-431,-339
7150,-15093,-5197,4732,451,-432,-322
7160,-15088,-5189,4715,454,-452,-331
7170,-15127,-5159,4680,448,-460,-327
7180,-15043,-5161,4703,413,-465,-319
7190,-15033,-5155,4741,400,-470,-324
7200,-15012,-5162,4744,362,-449,-313
7210,-14990,-5169,4710,336,-432,-291
7220,-15016,-5235,4767,306,-438,-285
7230,-15018,-5241,4767,272,-427,-296
7240,-15056,-5261,4748,262,-406,-286
7250,-15078,-5261,4703,267,-405,-291
7260,-15079,-5250,4713,278,-410,-292
7270,-15090,-5220,4745,274,-416,-297
7280,-15099,-5152,4689,284,-404,-301
7290,-15104,-5155,4717,282,-421,-296
7300,-15127,-5158,4706,303,-417,-297
7310,-15128,-5169,4696,306,-410,-291
7320,-15090,-5187,4663,318,-436,-293
7330,-15059,-5200,4668,308,-425,-282
7340,-15070,-5220,4707,349,-426,-299
7350,-15049,-5213,4696,373,-431,-299
7360,-15051,-5224,4701,375,-430,-301
7370,-15049,-5195,4704,399,-432,-316
7380,-15054,-5189,4689,420,-451,-309
7390,-15125,-5199,4724,443,-460,-308
7400,-15156,-5201,4730,425,-453,-291
7410,-15066,-5171,4674,425,-504,-316
7420,-14975,-5151,4631,445,-535,-326
7430,-14929,-5138,4662,409,-541,-316
7440,-14947,-5198,4768,350,-532,-279
7450,-14977,-5207,4810,319,-497,-257
7460,-15018,-5251,4833,314,-478,-257
7470,-15051,-5263,4784,276,-477,-246
7480,-15062,-5254,4781,260,-467,-244
7490,-15076,-5271,4770,260,-468,-251
7500,-15151,-5258,4709,281,-446,-300
7510,-15159,-5244,4668,306,-470,-311
7520,-15142,-5228,4682,306,-511,-332
7530,-15123,-5160,4728,323,-526,-335
7540,-15070,-5085,4742,348,-524,-340
7550,-15053,-5083,4748,345,-501,-330
7560,-15041,-5071,4736,352,-481,-320
7570,-15015,-5120,4713,363,-464,-318
7580,-14994,-5150,4714,355,-464,-326
7590,-15024,-5165,4760,381,-478,-332
7600,-15040,-5192,4774,364,-452,-349
7610,-15042,-5204,4777,343,-430,-327
7620,-15065,-5212,4754,342,-434,-324
7630,-15082,-5192,4729,344,-428,-353
7640,-15120,-5189,4738,354,-434,-342
7650,-15084,-5174,4735,343,-418,-337
7660,-15135,-5146,4711,343,-411,-363
7670,-15152,-5153,4699,348,-428,-363
7680,-15182,-5181,4680,340,-442,-350
7690,-15147,-5190,4681,310,-448,-335
7700,-14972,-5211,4682,308,-474,-321
7710,-14953,-5243,4661,301,-483,-312
7720,-14958,-5268,4694,293,-473,-287
7730,-15014,-5269,4769,302,-473,-301
7740,-15001,-5244,4788,324,-473,-308
7750,-15045,-5232,4770,337,-460,-301
7760,-15040,-5176,4776,330,-453,-305
7770,-15062,-5163,4786,375,-439,-308
7780,-15061,-5162,4782,359,-426,-298
7790,-15083,-5148,4776,355,-433,-308
7800,-15061,-5155,4785,344,-427,-300
7810,-15065,-5159,4759,340,-414,-295
7820,-15099,-5204,4744,332,-414,-306
7830,-15103,-5202,4733,347,-393,-308
7840,-15145,-5219,4729,337,-384,-307
7850,-15133,-5197,4685,362,-434,-353
7860,-15113,-5174,4681,359,-463,-368
7870,-15074,-5129,4673,351,-461,-342
7880,-15085,-5143,4662,348,-469,-345
7890,-15040,-5123,4698,351,-471,-339
7900,-15050,-5157,4699,314,-455,-330
7910,-15080,-5190,4736,311,-440,-314
7920,-15105,-5208,4675,319,-447,-327
7930,-15075,-5211,4661,335,-459,-327
7940,-15067,-5205,4694,334,-485,-321
7950,-14999,-5178,4727,354,-521,-350
7960,-15029,-5168,4782,345,-510,-352
7970,-15022,-5172,4811,318,-496,-336
7980,-15044,-5215,4820,333,-503,-337
7990,-15019,-5265,4788,341,-489,-335
8000,-15056,-5275,4771,316,-474,-323
8010,-15059,-5290,4775,329,-462,-324
8020,-15046,-5292,4757,327,-444,-324
8030,-15092,-5259,4716,349,-446,-334
8040,-15088,-5230,4718,355,-438,-321
8050,-15063,-5218,4695,343,-421,-311
8060,-15028,-5167,4700,307,-419,-296
8070,-15025,-5180,4732,340,-431,-311
8080,-15069,-5176,4736,320,-396,-284
8090,-15067,-5175,4734,333,-420,-292
8100,-15073,-5192,4758,322,-420,-291
8110,-15080,-5181,4763,353,-425,-298
8120,-15063,-5177,4762,339,-419,-299
8130,-15061,-5173,4758,333,-435,-311
8140,-15056,-5163,4759,327,-433,-301
8150,-15072,-5166,4712,344,-445,-303
8160,-15083,-5181,4706,345,-451,-306
8170,-15088,-5178,4686,348,-457,-302
8180,-15110,-5215,4685,339,-486,-332
8190,-15147,-5257,4659,364,-503,-332
8200,-15179,-5253,4688,378,-503,-309
8210,-15095,-5228,4679,390,-523,-309
8220,-15024,-5178,4658,400,-543,-325
8230,-15007,-5188,4682,377,-557,-321
8240,-14993,-5222,4799,361,-579,-310
8250,-15028,-5241,4854,379,-577,-309
8260,-15024,-5262,4878,371,-560,-296
8270,-15010,-5259,4850,372,-569,-301
8280,-15156,-5256,4834,392,-591,-303
8290,-15246,-5231,4837,428,-615,-308
8300,-15312,-5248,4806,442,-669,-301
8310,-15319,-5242,4811,465,-735,-280
8320,-15236,-5240,4794,493,-806,-273
8330,-15179,-5226,4818,491,-837,-241
8340,-15107,-5180,4808,539,-924,-166
8350,-15118,-5176,4788,550,-932,-146
8360,-15159,-5213,4804,562,-934,-132
8370,-15142,-5188,4916,588,-930,-126
8380,-15286,-5378,4838,618,-811,-143
8390,-15316,-5400,4860,702,-1034,-120
8400,-15173,-5229,4883,871,-1365,-6
8410,-14957,-5090,4917,978,-1567,143
8420,-14936,-5106,4882,988,-1612,188
8430,-14883,-5115,4889,1003,-1668,232
8440,-14870,-5122,4954,1011,-1690,275
8450,-14923,-5057,5085,1003,-1691,270
8460,-14863,-4989,5030,1028,-1675,249
8470,-14949,-5040,5014,1005,-1584,167
8480,-15114,-5177,4931,986,-1343,94
8490,-15179,-5242,4965,1043,-1351,95
8500,-15247,-5213,4999,1081,-1417,154
8510,-15112,-5177,5082,1136,-1685,339
8520,-15115,-5046,5233,1102,-1732,372
8530,-15039,-5000,5311,1042,-1696,435
8540,-14927,-4620,5475,936,-1406,386
8550,-15026,-4650,5603,940,-1376,292
8560,-15161,-4624,5529,1030,-1423,224
8570,-15075,-4640,5788,1228,-1824,193
8580,-15012,-4544,5904,1258,-1759,204
8590,-15043,-4515,5926,1297,-1799,243
8600,-14920,-4487,5970,1319,-1918,323
8610,-14840,-4415,6056,1261,-1961,444
8620,-14710,-4396,6039,1262,-2082,486
8630,-14592,-4406,5934,1242,-2006,507
8640,-14642,-4530,5970,1242,-2022,521
8650,-14711,-4555,5968,1255,-1974,550
8660,-14783,-4554,6141,1252,-1917,580
8670,-14755,-4468,6034,1317,-1957,571
8680,-14773,-4428,6024,1303,-1769,574
8690,-14735,-4421,6007,1280,-1741,589
8700,-14840,-4316,6010,1243,-1699,589
8710,-14816,-4383,6229,1068,-1601,496
8720,-14830,-4366,6176,1024,-1576,470
8730,-14821,-4328,6143,955,-1548,479
8740,-14883,-4246,6161,910,-1592,489
8750,-14837,-4215,6303,934,-1761,503
8760,-14696,-4177,6399,949,-1841,497
8770,-14676,-4177,6601,863,-1778,424
8780,-14642,-4118,6587,885,-1768,405
8790,-14662,-3979,6596,850,-1686,394
8800,-14549,-3754,6505,792,-1574,324
8810,-14588,-3695,6588,766,-1567,277
8820,-14701,-3687,6736,743,-1570,181
8830,-14771,-3701,6889,710,-1542,146
8840,-14886,-3790,7146,685,-1423,108
8850,-14865,-3668,7184,673,-1335,68
8860,-14993,-3594,7198,636,-1270,16
8870,-14887,-3531,7354,566,-1425,65
8880,-14757,-3381,7242,541,-1629,101
8890,-14490,-3459,7414,533,-1823,112
8900,-14188,-3403,7643,589,-1827,223
8910,-14151,-3240,7835,558,-1736,242
8920,-14239,-3198,7950,509,-1687,197
8930,-14294,-3172,7872,214,-1025,6
8940,-14399,-3133,7675,156,-994,-157
8950,-14388,-3185,7732,157,-837,-258
8960,-14410,-3316,7690,144,-872,-313
8970,-14141,-3272,7921,152,-894,-366
8980,-14199,-3251,7828,127,-625,-420
8990,-14371,-3374,7700,10,-338,-422
9000,-14460,-3460,7306,-40,-183,-365
9010,-14726,-3548,7074,-90,-162,-524
9020,-14811,-3686,7039,-121,-281,-652
9030,-14781,-4157,6895,-108,-552,-659
9040,-14577,-4160,6862,-115,-697,-578
9050,-14433,-4261,6856,-109,-839,-553
9060,-14412,-4298,7105,-10,-1229,-612
9070,-14112,-4322,7627,7,-1020,-588
9080,-12338,-2790,7582,-158,143,-537
9090,-14928,-4892,6843,-204,1455,-1254
9100,-14924,-4147,6683,-50,940,-611
9110,-15247,-4289,6702,197,102,-765
9120,-15255,-4205,7021,236,-364,-796
9130,-14821,-3811,6852,279,-310,-670
9140,-14809,-3671,6624,259,-231,-687
9150,-14789,-3616,6598,197,-422,-697
9160,-14690,-3594,6830,207,-1077,-748
9170,-14560,-3628,7057,248,-1286,-809
9180,-14533,-3749,7138,239,-1233,-871
9190,-14579,-3851,7085,276,-1191,-857
9200,-14592,-4049,7399,189,-823,-623
9210,-14674,-4173,7418,212,-522,-568
9220,-14796,-4274,7236,265,-256,-527
9230,-14830,-4197,6767,453,-129,-338
9240,-14999,-4084,6628,501,-301,-334
9250,-14977,-4058,6758,521,-715,-358
9260,-14655,-4240,6858,350,-1272,-405
9270,-14753,-4509,6891,556,-1637,-526
9280,-14545,-4610,7118,729,-1996,-456
9290,-14009,-4470,7513,850,-1999,-240
9300,-13827,-4420,7614,802,-1638,-190
9310,-13837,-4316,7622,786,-1251,-125
9320,-14030,-4288,7751,730,-1065,-56
9330,-14659,-4204,7795,923,-1163,14
9340,-14836,-4089,7764,939,-1231,37
9350,-14898,-3990,7739,852,-1224,-8
9360,-14932,-3994,7379,873,-1508,-227
9370,-14864,-3935,7362,913,-1856,-297
9380,-14739,-3897,7374,1032,-2359,-369
9390,-14637,-3874,7537,1129,-2856,-401
9400,-14404,-3721,7628,1265,-3329,-435
9410,-14327,-3681,7642,1201,-3307,-423
9420,-14274,-3629,7596,1127,-3215,-377
9430,-14203,-3720,7591,1029,-3185,-313
9440,-14268,-3743,7562,1033,-3292,-277
9450,-14154,-3763,7672,980,-3483,-195
9460,-14038,-3877,7923,891,-3597,-109
9470,-13970,-4014,8214,1000,-3636,-11
9480,-13937,-3940,8874,1060,-3611,95
9490,-13599,-3831,9061,1136,-3363,193
9500,-13263,-3554,9258,1149,-3246,281
9510,-13224,-3569,9288,1174,-3078,311
9520,-13722,-3675,9463,1128,-2623,157
9530,-13786,-3682,9388,1182,-2651,101
9540,-13731,-3588,9305,1278,-2883,98
9550,-13521,-3471,9432,1292,-3010,180
9560,-13285,-3204,9550,1238,-2997,329
9570,-13133,-3146,9664,1198,-2894,345
9580,-13217,-3218,9701,1181,-2709,334
9590,-13405,-3338,9809,1212,-2532,377
9600,-13426,-3402,9917,1185,-2500,402
9610,-13465,-3436,9910,1177,-2473,377
9620,-13310,-3347,9771,1216,-2588,333
9630,-13109,-3247,9806,1213,-2749,365
9640,-12903,-3102,9930,1194,-2789,374
9650,-12904,-3146,10132,1192,-2477,285
9660,-13046,-3158,10038,1257,-2201,224
9670,-12867,-3078,10109,1096,-1744,449
9680,-13298,-3095,10060,1052,-1279,408
9690,-13858,-3118,9805,1209,-1488,343
9700,-13475,-2918,9843,1231,-1805,427
9710,-12931,-2605,9911,1159,-1811,424
9720,-12837,-2550,10014,1153,-1813,456
9730,-12843,-2584,10092,1163,-1867,467
9740,-13072,-2881,10272,1113,-1856,433
9750,-13216,-2993,10260,1115,-1784,413
9760,-13335,-3052,10189,1145,-1795,393
9770,-13399,-3064,10199,1164,-1859,397
9780,-13188,-2854,10265,1108,-2069,406
9790,-13049,-2747,10326,1087,-2195,428
9800,-12904,-2634,10417,1041,-2275,428
9810,-12803,-2607,10488,1047,-2383,402
9820,-12456,-2624,10372,1063,-2483,303
9830,-12422,-2614,10342,1042,-2439,224
9840,-12324,-2673,10401,1028,-2254,104
9850,-12330,-2762,10727,947,-1996,-18
9860,-12419,-2791,10863,943,-1895,-53
9870,-12505,-2799,10903,931,-1711,-55
9880,-12684,-2668,10999,862,-1298,-9
9890,-12743,-2596,11071,886,-1229,-25
9900,-12767,-2520,11154,849,-1206,-10
9910,-12724,-2465,11186,811,-1171,8
9920,-12512,-2376,11156,766,-1009,94
9930,-12426,-2329,11149,720,-993,75
9940,-12271,-2203,11051,658,-944,36
9950,-12232,-2139,10930,680,-911,12
9960,-12271,-2143,10887,664,-846,-21
9970,-12270,-2220,10827,659,-690,-100
9980,-12316,-2260,10715,672,-604,-124
9990,-12338,-2318,10671,681,-525,-145
10000,-12299,-2399,10755,660,-454,-166
10010,-12153,-2329,10796,612,-136,-3
10020,-12232,-2243,10781,631,114,24
10030,-12444,-2296,10782,572,218,-72
10040,-12627,-2292,10752,544,200,-195
10050,-12644,-2369,10732,521,108,-286
10060,-12680,-2444,10766,477,58,-359
10070,-12770,-2401,10716,542,-64,-434
10080,-12791,-2373,10703,515,-147,-430
10090,-12752,-2344,10719,499,-251,-430
10100,-12740,-2336,10738,469,-299,-437
10110,-12756,-2297,10742,497,-372,-416
10120,-12794,-2265,10771,474,-444,-417
10130,-12785,-2269,10797,478,-540,-436
10140,-12708,-2324,10838,480,-685,-428
10150,-12637,-2319,10898,515,-753,-435
10160,-12587,-2299,10925,501,-762,-415
10170,-12495,-2253,11040,500,-753,-356
10180,-12428,-2225,11020,519,-753,-317
10190,-12466,-2196,11019,480,-623,-307
10200,-12481,-2180,11029,492,-618,-317
10210,-12481,-2165,11046,513,-572,-326
10220,-12481,-2165,11063,499,-536,-329
10230,-12548,-2164,11037,462,-464,-353
10240,-12474,-2185,10953,447,-439,-330
10250,-12532,-2178,10952,431,-398,-357
10260,-12600,-2244,10938,408,-363,-369
10270,-12603,-2278,10920,412,-375,-367
10280,-12631,-2284,10873,413,-409,-367
10290,-12664,-2316,10844,405,-452,-372
10300,-12662,-2329,10821,367,-497,-369
10310,-12671,-2316,10792,351,-520,-386
10320,-12686,-2330,10809,333,-593,-404
10330,-12699,-2331,10736,303,-634,-407
10340,-12599,-2346,10754,289,-693,-385
10350,-12555,-2333,10762,315,-708,-383
10360,-12504,-2322,10810,299,-713,-377
10370,-12488,-2272,10761,327,-752,-382
10380,-12479,-2270,10783,296,-810,-407
10390,-12477,-2291,10861,251,-821,-418
10400,-12555,-2307,10962,266,-952,-451
10410,-12512,-2291,10966,266,-995,-456
10420,-12452,-2305,10938,280,-1025,-456
10430,-12424,-2342,10989,277,-1058,-424
10440,-12405,-2351,11008,288,-1064,-407
10450,-12441,-2344,11048,296,-1052,-396
10460,-12405,-2355,11162,319,-1019,-359
10470,-12420,-2355,11171,341,-988,-344
10480,-12378,-2352,11198,358,-943,-336
10490,-12339,-2366,11193,373,-881,-318
10500,-12342,-2352,11216,409,-859,-301
10510,-12308,-2365,11233,400,-848,-282
10520,-12269,-2352,11182,459,-785,-275
10530,-12287,-2370,11201,451,-750,-275
10540,-12314,-2385,11164,457,-704,-261
10550,-12309,-2404,11160,510,-731,-253
10560,-12355,-2364,11250,485,-701,-245
10570,-12356,-2359,11177,496,-740,-246
10580,-12310,-2338,11166,498,-721,-238
10590,-12440,-2327,11156,524,-756,-224
10600,-12355,-2345,11168,564,-845,-203
10610,-12374,-2305,11197,573,-868,-203
10620,-12347,-2320,11225,543,-799,-186
10630,-12309,-2261,11228,558,-820,-147
10640,-12259,-2227,11280,556,-821,-148
10650,-12369,-2266,11283,574,-857,-145
10660,-12414,-2270,11284,550,-800,-146
10670,-12428,-2293,11317,558,-862,-147
10680,-12334,-2198,11237,610,-1095,-107
10690,-12241,-2097,11256,587,-1092,-130
10700,-12220,-2096,11308,528,-1023,-134
10710,-12222,-2128,11325,529,-999,-160
10720,-12181,-2117,11297,552,-1087,-150
10730,-12160,-2113,11309,521,-1024,-168
10740,-12144,-2122,11365,471,-974,-182
10750,-12140,-2108,11322,485,-961,-224
10760,-12136,-2105,11345,453,-957,-221
10770,-12158,-2128,11405,417,-925,-226
10780,-12184,-2131,11413,409,-921,-244
10790,-12162,-2100,11431,399,-991,-239
10800,-12174,-2095,11450,340,-945,-259
10810,-12163,-2075,11472,336,-952,-277
10820,-12059,-2079,11431,247,-894,-332
10830,-12087,-2068,11468,221,-858,-358
10840,-12083,-2077,11484,199,-833,-400
10850,-12090,-2098,11491,158,-771,-410
10860,-12096,-2123,11510,172,-762,-435
10870,-12086,-2123,11525,169,-745,-425
10880,-12030,-2155,11519,175,-741,-429
10890,-12032,-2166,11474,188,-737,-435
10900,-12036,-2189,11565,171,-727,-434
10910,-12054,-2212,11552,204,-714,-423
10920,-12087,-2239,11562,194,-709,-434
10930,-12046,-2244,11585,202,-714,-424
10940,-11975,-2259,11582,225,-695,-421
10950,-11992,-2267,11592,240,-662,-414
10960,-11987,-2282,11581,256,-670,-419
10970,-11996,-2302,11610,267,-666,-403
10980,-11958,-2290,11628,297,-650,-374
10990,-11978,-2311,11631,343,-661,-366
11000,-11966,-2287,11597,349,-618,-329
11010,-11955,-2278,11619,386,-612,-311
11020,-11972,-2306,11618,406,-594,-293
11030,-11962,-2289,11620,405,-564,-271
11040,-11973,-2296,11579,419,-558,-266
11050,-11995,-2268,11619,437,-527,-258
11060,-11977,-2259,11623,421,-518,-261
11070,-11976,-2252,11617,411,-497,-258
11080,-11954,-2216,11625,414,-449,-263
11090,-11951,-2199,11633,427,-447,-284
11100,-11958,-2167,11628,414,-417,-286
11110,-11976,-2169,11625,393,-380,-270
11120,-12009,-2160,11661,406,-369,-286
11130,-12034,-2158,11657,406,-354,-283
11140,-11986,-2129,11673,382,-294,-263
11150,-11994,-2119,11644,407,-268,-274
11160,-11987,-2124,11698,392,-233,-266
11170,-12083,-2157,11631,421,-219,-292
11180,-12079,-2157,11618,411,-225,-297
11190,-12043,-2140,11613,420,-239,-297
11200,-12025,-2134,11623,433,-260,-310
11210,-12084,-2160,11585,443,-256,-306
11220,-12067,-2183,11551,401,-277,-293
11230,-12031,-2184,11521,425,-291,-295
11240,-12026,-2143,11484,436,-303,-302
11250,-12075,-2207,11431,410,-319,-314
11260,-12114,-2221,11489,370,-313,-278
11270,-12141,-2190,11469,391,-334,-282
11280,-12060,-2142,11505,378,-350,-288
11290,-11952,-2172,11469,353,-309,-314
11300,-12008,-2210,11440,385,-292,-332
11310,-12038,-2151,11551,385,-353,-341
11320,-12068,-2168,11524,396,-383,-314
11330,-12132,-2178,11582,392,-412,-291
11340,-12136,-2207,11610,400,-454,-256
11350,-12154,-2220,11597,412,-488,-251
11360,-12171,-2213,11566,402,-496,-233
11370,-12038,-2128,11513,408,-493,-254
11380,-12020,-2098,11487,383,-446,-263
11390,-12032,-2098,11459,375,-409,-282
11400,-12027,-2148,11436,364,-369,-291
11410,-11994,-2148,11473,359,-298,-293
11420,-11995,-2154,11481,330,-290,-301
11430,-12004,-2166,11504,363,-332,-315
11440,-12047,-2167,11504,365,-354,-322
11450,-12094,-2160,11526,381,-361,-327
11460,-12104,-2178,11525,399,-367,-327
11470,-12108,-2156,11475,408,-373,-325
11480,-12089,-2149,11467,376,-417,-305
11490,-12094,-2169,11455,369,-431,-298
11500,-12125,-2169,11469,384,-449,-296
11510,-12055,-2123,11474,366,-441,-289
11520,-12034,-2107,11441,362,-403,-304
11530,-12050,-2123,11472,336,-384,-311
11540,-12132,-2112,11504,353,-353,-325
11550,-12157,-2147,11514,337,-356,-309
11560,-12146,-2140,11515,341,-376,-304
11570,-12138,-2149,11500,360,-442,-300
11580,-12147,-2124,11493,364,-456,-284
11590,-12133,-2146,11516,370,-504,-292
11600,-12109,-2150,11488,351,-544,-291
11610,-12086,-2139,11483,362,-553,-285
11620,-12072,-2151,11491,347,-547,-287
11630,-12064,-2135,11493,329,-535,-305
11640,-12061,-2142,11515,339,-525,-308
11650,-12084,-2135,11481,352,-504,-321
11660,-12092,-2135,11473,375,-500,-331
11670,-12081,-2154,11509,359,-497,-307
11680,-12112,-2153,11503,375,-509,-309
11690,-12097,-2146,11518,373,-515,-294
11700,-12126,-2167,11525,380,-539,-290
11710,-12119,-2156,11519,402,-557,-288
11720,-12115,-2151,11518,377,-554,-281
11730,-12104,-2161,11496,370,-557,-270
11740,-12045,-2143,11504,366,-563,-288
11750,-12058,-2117,11498,363,-567,-283
11760,-12046,-2118,11556,353,-526,-308
11770,-12052,-2120,11546,333,-503,-297
11780,-12041,-2110,11564,349,-502,-310
11790,-12049,-2105,11537,355,-498,-311
11800,-12070,-2095,11559,358,-484,-319
11810,-12082,-2114,11535,329,-472,-293
11820,-12077,-2106,11548,344,-473,-295
11830,-12099,-2109,11529,364,-490,-291
11840,-12066,-2108,11520,344,-479,-296
11850,-12059,-2086,11534,342,-469,-289
11860,-12068,-2120,11555,345,-468,-293
11870,-12093,-2133,11539,343,-462,-298
11880,-12104,-2160,11537,333,-467,-300
11890,-12095,-2164,11517,344,-475,-302
11900,-12067,-2146,11543,356,-501,-312
11910,-12059,-2126,11548,350,-493,-311
11920,-12109,-2149,11544,336,-492,-311
11930,-12139,-2173,11560,343,-486,-293
11940,-12121,-2125,11575,381,-511,-273
11950,-12014,-2103,11579,389,-513,-270
11960,-11956,-2096,11523,366,-505,-283
11970,-12064,-2086,11476,373,-481,-334
11980,-12093,-2089,11504,351,-467,-332
11990,-12018,-2070,11525,341,-449,-342
12000,-12071,-2101,11555,347,-455,-329
12010,-12085,-2120,11580,345,-485,-312
12020,-12090,-2116,11606,371,-510,-292
12030,-12116,-2152,11613,377,-553,-274
12040,-12208,-2188,11603,386,-567,-281
12050,-12199,-2192,11566,378,-568,-259
12060,-12064,-2095,11468,366,-615,-246
12070,-11989,-2072,11481,360,-616,-260
12080,-12004,-2081,11485,358,-572,-275
12090,-12003,-2091,11506,339,-548,-294
12100,-11948,-2067,11536,334,-501,-303
12110,-11939,-2085,11563,329,-512,-310
12120,-11968,-2095,11583,332,-511,-312
12130,-12012,-2138,11590,344,-547,-305
12140,-12019,-2119,11607,349,-562,-288
12150,-12037,-2118,11603,397,-572,-275
12160,-12014,-2117,11596,401,-589,-266
12170,-12005,-2112,11588,417,-586,-268
12180,-12004,-2118,11580,407,-542,-253
12190,-12041,-2110,11566,393,-533,-257
12200,-11995,-2068,11558,376,-535,-279
12210,-11952,-2070,11519,344,-498,-285
12220,-12046,-2104,11602,339,-461,-307
12230,-12030,-2090,11600,335,-482,-301
12240,-12009,-2080,11630,356,-511,-311
12250,-12012,-2069,11620,350,-531,-313
12260,-12018,-2067,11626,349,-541,-311
12270,-12020,-2078,11636,349,-524,-284
12280,-12030,-2062,11632,351,-522,-291
12290,-12001,-2075,11619,340,-500,-295
12300,-12072,-2081,11724,324,-469,-301
12310,-12005,-2081,11592,356,-488,-305
12320,-12017,-2110,11635,332,-409,-317
12330,-11990,-2085,11601,348,-423,-345
12340,-12004,-2087,11604,338,-417,-344
12350,-12013,-2081,11609,335,-416,-335
12360,-12017,-2079,11634,327,-403,-311
12370,-12010,-2077,11629,343,-412,-321
12380,-12001,-2091,11637,328,-390,-327
12390,-12002,-2093,11604,343,-383,-328
12400,-12024,-2102,11605,335,-363,-329
12410,-12011,-2106,11577,337,-349,-334
12420,-12003,-2123,11590,320,-353,-341
12430,-11999,-2111,11599,341,-367,-352
12440,-12011,-2100,11583,343,-347,-364
12450,-12021,-2088,11599,346,-343,-356
12460,-12035,-2099,11567,336,-337,-342
12470,-12010,-2091,11577,327,-349,-344
12480,-12041,-2109,11562,344,-359,-337
12490,-12060,-2097,11586,338,-371,-311
12500,-12053,-2094,11553,360,-371,-308
12510,-12044,-2091,11558,342,-365,-313
12520,-12051,-2105,11532,343,-362,-320
12530,-12054,-2112,11528,334,-365,-324
12540,-12048,-2104,11528,322,-369,-330
12550,-12057,-2090,11560,326,-385,-334
12560,-12065,-2104,11565,346,-389,-333
12570,-12068,-2104,11552,345,-401,-339
12580,-12079,-2113,11557,345,-406,-332
12590,-12034,-2101,11574,347,-429,-323
12600,-12058,-2099,11560,346,-432,-313
12610,-12046,-2100,11533,355,-436,-317
12620,-12107,-2152,11548,338,-445,-309
12630,-12138,-2137,11530,343,-460,-285
12640,-12123,-2100,11567,346,-490,-284
12650,-11996,-2080,11530,341,-511,-291
12660,-11967,-2076,11479,344,-468,-337
12670,-12077,-2108,11471,348,-469,-341
12680,-12032,-2089,11557,352,-490,-344
12690,-11993,-2077,11577,323,-474,-335
12700,-12062,-2084,11590,333,-496,-322
12710,-12105,-2134,11614,388,-580,-268
12720,-12080,-2126,11631,409,-617,-253
12730,-12085,-2143,11634,396,-631,-244
12740,-12168,-2146,11613,397,-643,-235
12750,-12080,-2111,11569,395,-657,-209
12760,-11992,-2059,11561,351,-637,-210
12770,-11977,-2053,11504,351,-602,-236
12780,-11977,-2038,11510,341,-605,-256
12790,-11960,-2052,11555,301,-516,-291
12800,-11918,-2066,11581,314,-498,-315
12810,-11907,-2058,11585,329,-491,-327
12820,-11976,-2098,11602,348,-522,-317
12830,-12005,-2126,11616,369,-536,-313
12840,-12023,-2108,11635,354,-539,-302
12850,-12018,-2114,11630,374,-548,-262
12860,-12015,-2106,11620,382,-549,-254
12870,-12003,-2112,11627,386,-554,-262
12880,-12011,-2114,11587,393,-538,-265
12890,-12032,-2081,11584,374,-516,-263
12900,-11995,-2060,11594,377,-502,-294
12910,-11977,-2075,11567,356,-438,-311
12920,-11976,-2057,11637,341,-416,-316
12930,-12005,-2062,11616,333,-401,-324
12940,-12026,-2087,11639,341,-428,-308
12950,-12023,-2062,11603,357,-455,-316
12960,-12007,-2071,11613,356,-478,-301
12970,-11981,-2057,11638,364,-494,-306
12980,-11978,-2058,11648,346,-505,-301
12990,-11997,-2054,11622,348,-486,-296
13000,-12041,-2079,11621,349,-481,-292
13010,-11992,-2078,11612,356,-483,-306
13020,-11997,-2072,11604,347,-471,-327
13030,-12001,-2074,11604,339,-466,-329
13040,-12014,-2080,11594,326,-455,-327
13050,-12002,-2083,11615,355,-467,-335
13060,-12006,-2083,11628,359,-476,-333
13070,-11981,-2082,11621,344,-467,-318
13080,-11980,-2098,11638,347,-477,-319
13090,-11990,-2072,11633,340,-481,-310
13100,-11982,-2077,11628,334,-468,-300
13110,-11991,-2081,11620,350,-471,-301
13120,-11995,-2079,11616,341,-466,-307
13130,-11976,-2074,11624,341,-442,-332
13140,-11977,-2067,11641,337,-432,-340
13150,-11979,-2069,11642,330,-420,-336
13160,-11986,-2073,11621,342,-415,-335
13170,-12001,-2082,11630,319,-406,-323
13180,-11992,-2076,11633,340,-410,-312
13190,-11998,-2082,11623,342,-410,-325
13200,-11986,-2065,11608,343,-399,-319
13210,-11985,-2078,11596,356,-410,-332
13220,-11983,-2079,11615,343,-406,-323
13230,-12016,-2094,11603,332,-395,-321
13240,-12020,-2076,11598,332,-399,-320
13250,-12023,-2078,11601,315,-399,-320
13260,-12020,-2069,11598,332,-397,-334
13270,-12022,-2072,11619,327,-390,-339
13280,-12007,-2065,11621,340,-399,-335
13290,-12010,-2069,11613,330,-395,-333
13300,-12025,-2102,11617,327,-398,-325
13310,-11990,-2092,11608,347,-393,-324
13320,-11992,-2083,11597,326,-392,-312
13330,-11993,-2085,11605,338,-401,-319
13340,-12018,-2096,11623,327,-401,-326
13350,-12034,-2122,11580,354,-400,-339
13360,-12109,-2122,11591,349,-422,-311
13370,-12040,-2087,11601,359,-443,-317
13380,-11929,-2065,11589,361,-446,-316
13390,-11979,-2093,11502,358,-403,-354
13400,-12062,-2072,11501,350,-390,-356
13410,-12040,-2075,11547,350,-386,-359
13420,-11984,-2072,11585,360,-388,-356
13430,-12040,-2074,11597,339,-419,-330
13440,-12091,-2079,11634,363,-475,-314
13450,-12099,-2124,11660,366,-518,-284
13460,-12141,-2134,11625,407,-585,-266
13470,-12161,-2143,11626,402,-610,-258
13480,-12133,-2119,11586,400,-637,-240
13490,-11948,-2045,11518,358,-627,-247
13500,-11942,-2045,11538,361,-605,-269
13510,-12008,-2063,11557,330,-568,-278
13520,-11982,-2078,11587,336,-537,-292
13530,-11914,-2070,11599,335,-539,-316
13540,-11890,-2062,11602,331,-536,-312
13550,-11912,-2081,11646,345,-541,-306
13560,-11986,-2106,11660,359,-545,-282
13570,-12008,-2098,11646,383,-560,-275
13580,-11975,-2089,11663,398,-551,-260
13590,-11958,-2095,11642,408,-559,-255
13600,-11955,-2088,11669,394,-549,-244
13610,-12024,-2073,11616,414,-521,-246
13620,-12016,-2062,11626,373,-519,-267
13630,-11968,-2048,11650,376,-503,-296
13640,-11935,-2048,11609,352,-468,-318
13650,-11968,-2033,11620,350,-402,-317
13660,-11974,-2023,11626,341,-406,-325
13670,-12017,-2064,11654,325,-410,-314
13680,-11973,-2065,11625,345,-471,-311
13690,-11966,-2039,11632,366,-475,-300
13700,-11975,-2033,11642,365,-481,-310
13710,-11975,-2042,11657,367,-493,-303
13720,-11996,-2062,11650,350,-497,-289
13730,-12013,-2065,11653,345,-494,-285
13740,-12007,-2069,11633,350,-491,-296
13750,-11992,-2069,11615,351,-493,-305
13760,-11987,-2067,11626,363,-502,-327
13770,-11986,-2079,11638,344,-477,-320
13780,-11968,-2066,11624,352,-490,-332
13790,-11967,-2069,11617,354,-486,-332
13800,-11960,-2061,11643,348,-476,-323
13810,-11955,-2060,11652,353,-485,-327
13820,-11965,-2070,11652,334,-506,-296
13830,-11978,-2065,11637,348,-512,-288
13840,-11976,-2069,11677,366,-510,-288
13850,-11965,-2065,11655,347,-494,-288
13860,-11941,-2070,11642,351,-486,-296
13870,-11934,-2064,11630,352,-481,-305
13880,-11958,-2057,11652,332,-464,-313
13890,-11959,-2059,11666,345,-457,-323
13900,-11954,-2055,11683,346,-452,-338
13910,-11960,-2055,11662,308,-451,-319
13920,-11960,-2054,11674,352,-450,-316
13930,-11975,-2062,11664,337,-460,-314
13940,-11980,-2063,11657,350,-459,-299
13950,-11969,-2051,11644,351,-469,-299
13960,-11943,-2054,11650,354,-475,-312
13970,-11963,-2040,11639,347,-466,-298
13980,-11991,-2050,11651,338,-470,-310
13990,-11960,-2062,11641,349,-477,-312
14000,-11959,-2054,11638,349,-477,-310
14010,-11975,-2057,11647,335,-488,-307
14020,-11976,-2064,11648,345,-488,-317
14030,-11955,-2056,11666,332,-478,-311
14040,-11954,-2053,11679,337,-483,-325
14050,-11940,-2060,11675,322,-462,-311
14060,-11958,-2064,11688,335,-472,-304
14070,-11951,-2059,11677,339,-468,-310
14080,-11932,-2064,11671,344,-470,-303
14090,-11947,-2069,11676,350,-478,-318
14100,-11952,-2073,11681,316,-465,-300
14110,-11984,-2103,11664,327,-457,-304
14120,-12026,-2094,11686,372,-462,-307
14130,-11959,-2039,11693,377,-470,-287
14140,-11835,-2027,11663,389,-477,-302
14150,-11806,-2026,11593,329,-422,-310
14160,-11905,-2046,11588,325,-408,-338
14170,-11998,-2054,11622,296,-402,-355
14180,-11939,-2053,11658,314,-409,-360
14190,-11944,-2036,11668,321,-414,-350
14200,-12019,-2072,11710,334,-452,-323
14210,-12022,-2069,11727,387,-556,-267
14220,-12004,-2090,11729,369,-568,-251
14230,-12025,-2089,11709,347,-548,-242
14240,-12050,-2097,11663,367,-585,-264
14250,-11996,-2080,11639,366,-603,-244
14260,-11918,-2013,11624,368,-622,-261
14270,-11900,-2025,11633,325,-594,-278
14280,-11909,-2026,11627,346,-580,-309
14290,-11866,-2029,11666,304,-525,-307
14300,-11828,-2054,11666,317,-504,-322
14310,-11860,-2065,11676,336,-524,-322
14320,-11921,-2077,11710,342,-538,-315
14330,-11943,-2081,11728,371,-572,-292
14340,-11931,-2072,11725,378,-561,-274
14350,-11923,-2067,11722,377,-550,-269
14360,-11928,-2064,11721,413,-553,-276
14370,-11935,-2060,11725,393,-552,-281
14380,-11851,-2072,11651,403,-587,-273
14390,-11912,-2020,11626,384,-594,-268
14400,-11878,-2028,11677,345,-475,-316
14410,-11862,-2033,11679,335,-440,-321
14420,-11893,-2007,11716,327,-405,-332
14430,-11907,-2035,11716,324,-392,-316
14440,-11925,-2060,11733,331,-427,-330
14450,-11906,-2049,11710,359,-448,-313
14460,-11917,-2039,11709,370,-478,-308
14470,-11931,-2013,11727,392,-518,-306
14480,-11902,-2013,11716,348,-499,-277
14490,-11940,-2033,11683,330,-492,-292
14500,-11939,-2049,11710,337,-497,-297
14510,-11945,-2053,11726,332,-491,-294
14520,-11944,-1793,11709,345,-488,-302
14530,-11920,-2031,11698,338,-480,-316
14540,-11922,-2038,11723,347,-496,-331
14550,-11922,-2044,11703,352,-491,-324
14560,-11913,-2038,11699,354,-488,-325
14570,-11908,-2026,11721,337,-496,-312
14580,-11912,-2044,11722,347,-494,-303
14590,-11899,-2051,11707,361,-509,-297
14600,-11918,-2058,11711,358,-539,-295
14610,-11922,-2040,11702,338,-538,-291
14620,-11913,-2060,11721,328,-538,-293
14630,-11875,-2047,11694,343,-539,-295
14640,-11884,-2057,11709,317,-530,-301
14650,-11880,-2051,11704,334,-539,-313
14660,-11878,-2046,11721,337,-540,-320
14670,-11871,-2033,11712,337,-552,-323
14680,-11865,-2028,11732,321,-542,-323
14690,-11896,-2019,11725,310,-524,-300
14700,-11895,-2055,11770,294,-523,-297
14710,-11901,-2048,11776,317,-552,-306
14720,-11889,-2048,11774,316,-553,-315
14730,-11872,-2042,11773,324,-541,-294
14740,-11884,-2030,11789,337,-539,-312
14750,-11883,-2052,11763,342,-538,-323
14760,-11889,-2058,11786,324,-517,-304
14770,-11898,-2052,11779,332,-509,-310
14780,-11884,-2061,11753,315,-512,-311
14790,-11867,-2041,11770,345,-523,-325
14800,-11855,-2054,11763,336,-522,-326
14810,-11851,-2049,11765,339,-510,-326
14820,-11882,-2050,11772,303,-496,-312
14830,-11862,-2038,11769,315,-487,-317
14840,-11861,-2044,11759,320,-494,-338
14850,-11841,-2041,11791,323,-472,-332
14860,-11851,-2043,11782,332,-470,-337
14870,-11864,-2056,11800,334,-457,-334
14880,-11880,-2046,11805,330,-456,-323
14890,-11853,-2035,11775,305,-435,-309
14900,-11856,-2042,11777,302,-450,-321
14910,-11866,-2051,11773,321,-445,-337
14920,-11904,-2070,11745,334,-443,-329
14930,-11931,-2079,11777,309,-435,-315
14940,-11842,-2046,11687,317,-434,-348
14950,-11910,-2072,11691,297,-416,-349
14960,-11872,-2056,11723,305,-431,-359
14970,-11846,-2048,11803,339,-441,-368
14980,-11910,-2041,11801,347,-479,-339
14990,-11916,-2071,11773,347,-511,-299
15000,-11937,-2085,11816,380,-591,-261
15010,-11919,-2079,11798,378,-586,-250
15020,-11930,-2097,11790,360,-586,-249
15030,-11866,-2064,11742,364,-632,-239
15040,-11838,-2043,11738,348,-651,-258
15050,-11814,-2037,11742,336,-648,-268
15060,-11802,-2025,11729,334,-636,-299
15070,-11800,-2023,11724,289,-602,-294
15080,-11768,-2014,11724,298,-587,-302
15090,-11766,-2044,11790,308,-614,-313
15100,-11795,-2054,11806,309,-609,-297
15110,-11808,-2055,11841,316,-620,-301
15120,-11798,-2053,11858,354,-651,-297
15130,-11841,-2063,11885,354,-615,-276
15140,-11817,-2065,11852,373,-612,-278
15150,-11819,-2069,11836,368,-602,-268
15160,-11810,-2043,11854,358,-618,-260
15170,-11779,-2020,11816,335,-600,-253
15180,-11716,-2020,11827,343,-566,-282
15190,-11701,-2014,11789,325,-515,-301
15200,-11739,-2038,11801,309,-458,-303
15210,-11800,-2016,11843,292,-428,-310
15220,-11805,-2055,11864,343,-437,-321
15230,-11785,-2031,11858,342,-441,-309
15240,-11817,-2033,11859,334,-462,-308
15250,-11816,-2019,11871,335,-499,-296
15260,-11809,-2037,11850,345,-511,-296
15270,-11810,-2042,11854,339,-521,-293
15280,-11772,-2024,11840,332,-525,-295
15290,-11785,-2035,11825,331,-512,-290
15300,-11772,-2025,11839,320,-496,-302
15310,-11782,-2023,11822,314,-478,-316
15320,-11785,-2036,11848,317,-461,-312
15330,-11795,-2026,11849,325,-471,-330
15340,-11805,-2034,11856,330,-471,-332
15350,-11781,-2029,11874,326,-466,-335
15360,-11794,-2048,11861,318,-475,-331
15370,-11799,-2049,11883,327,-478,-326
15380,-11797,-2043,11863,350,-475,-315
15390,-11791,-2059,11876,347,-487,-297
15400,-11790,-2039,11862,322,-487,-311
15410,-11784,-2041,11882,324,-481,-301
15420,-11788,-2040,11845,339,-485,-316
15430,-11774,-2060,11842,325,-455,-316
15440,-11778,-2035,11835,326,-448,-322
15450,-11797,-2040,11859,315,-453,-339
15460,-11775,-2047,11856,314,-457,-331
15470,-11768,-2050,11843,312,-450,-323
15480,-11774,-2043,11857,321,-447,-321
15490,-11792,-2057,11872,335,-457,-324
15500,-11801,-2031,11858,343,-454,-326
15510,-11793,-2050,11861,347,-473,-314
15520,-11779,-2047,11868,336,-464,-293
15530,-11776,-2052,11864,352,-468,-307
15540,-11783,-2043,11866,360,-473,-304
15550,-11796,-2046,11863,358,-468,-306
15560,-11768,-2042,11842,353,-462,-309
15570,-11786,-2036,11850,327,-456,-305
15580,-11770,-2053,11864,326,-448,-314
15590,-11788,-2049,11844,342,-461,-328
15600,-11768,-2049,11859,330,-461,-326
15610,-11782,-2042,11871,330,-459,-319
15620,-11761,-2040,11852,324,-453,-319
15630,-11765,-2032,11863,321,-448,-325
15640,-11773,-2045,11868,332,-444,-328
15650,-11796,-2044,11848,304,-420,-300
15660,-11795,-2032,11854,325,-448,-326
15670,-11804,-2044,11858,324,-460,-313
15680,-11795,-2037,11881,339,-455,-301
15690,-11782,-2056,11870,338,-456,-300
15700,-11782,-2054,11853,334,-466,-305
15710,-11757,-2049,11833,344,-467,-307
15720,-11774,-2063,11834,348,-469,-317
15730,-11789,-2067,11817,348,-456,-308
15740,-11833,-2071,11839,354,-469,-296
15750,-11819,-2049,11883,350,-481,-289
15760,-11707,-2011,11843,336,-493,-292
15770,-11682,-2018,11839,342,-481,-326
15780,-11801,-2024,11824,323,-427,-338
15790,-11817,-2049,11829,316,-431,-353
15800,-11749,-2033,11850,324,-446,-356
15810,-11795,-2011,11887,354,-450,-348
15820,-11831,-2050,11909,356,-486,-330
15830,-11827,-2041,11916,374,-530,-287
15840,-11842,-2072,11868,377,-515,-269
15850,-11716,-2028,11857,344,-610,-276
15860,-11760,-2034,11851,330,-599,-285
15870,-11771,-2038,11872,312,-587,-297
15880,-11696,-2028,11864,293,-543,-302
15890,-11721,-2039,11845,316,-565,-319
15900,-11709,-2016,11822,306,-552,-312
15910,-11731,-2050,11908,294,-552,-315
15920,-11732,-2055,11925,331,-546,-298
15930,-11740,-2067,11917,344,-545,-296
15940,-11728,-2061,11924,365,-544,-298
15950,-11737,-2064,11923,366,-530,-283
15960,-11740,-2054,11901,363,-528,-289
15970,-11742,-2050,11885,362,-527,-290
15980,-11751,-2051,11909,357,-517,-297
15990,-11722,-2027,11914,337,-485,-296
16000,-11662,-2017,11900,332,-451,-305
16010,-11711,-2041,11886,309,-402,-320
16020,-11764,-2001,11932,311,-375,-309
16030,-11730,-2037,11915,334,-398,-335
16040,-11712,-2046,11903,337,-406,-324
16050,-11751,-2049,11893,353,-438,-334
16060,-11741,-2047,11906,363,-451,-326
16070,-11722,-2030,11927,363,-462,-304
16080,-11731,-2039,11905,353,-487,-304
16090,-11719,-2040,11880,351,-472,-308
16100,-11736,-2039,11904,358,-454,-315
16110,-11752,-2050,11890,344,-446,-318
16120,-11749,-2057,11879,339,-448,-329
16130,-11750,-2054,11901,348,-452,-327
16140,-11749,-2043,11900,345,-446,-317
16150,-11720,-2059,11900,362,-463,-342
16160,-11727,-2059,11895,354,-437,-327
16170,-11730,-2046,11889,339,-428,-322
16180,-11728,-2050,11911,324,-430,-319
16190,-11738,-2053,11889,326,-431,-305
16200,-11749,-2057,11910,334,-427,-298
16210,-11746,-2036,11902,341,-435,-312
16220,-11736,-2052,11911,326,-439,-313
16230,-11727,-2042,11882,335,-436,-315
16240,-11731,-2045,11870,315,-412,-298
16250,-11729,-2043,11894,320,-418,-320
16260,-11762,-2055,11882,294,-387,-303
16270,-11734,-2040,11893,315,-397,-325
16280,-11744,-2037,11891,329,-390,-326
16290,-11719,-2040,11901,334,-370,-336
16300,-11739,-2050,11915,334,-359,-339
16310,-11758,-2053,11918,334,-352,-336
16320,-11754,-2060,11914,315,-335,-330
16330,-11761,-2053,11900,333,-344,-334
16340,-11768,-2046,11895,309,-343,-331
16350,-11747,-2055,11895,340,-348,-349
16360,-11765,-2064,11883,342,-341,-339
16370,-11779,-2061,11875,364,-329,-328
16380,-11778,-2046,11871,339,-335,-334
16390,-11792,-2052,11858,357,-359,-344
16400,-11803,-2059,11836,353,-355,-340
16410,-11781,-2045,11844,359,-374,-335
16420,-11795,-2054,11841,341,-339,-336
16430,-11803,-2053,11849,355,-350,-350
16440,-11788,-2047,11829,346,-353,-340
16450,-11777,-2028,11858,326,-345,-323
16460,-11789,-2038,11852,346,-329,-334
16470,-11776,-2045,11851,354,-321,-345
16480,-11776,-2060,11858,363,-326,-351
16490,-11787,-2063,11825,365,-322,-359
16500,-11777,-2065,11810,345,-329,-351
16510,-11775,-2048,11828,361,-331,-354
16520,-11835,-2024,11817,358,-330,-346
16530,-11835,-2065,11807,369,-324,-339
16540,-11805,-2075,11810,351,-334,-326
16550,-11811,-2079,11796,368,-353,-334
16560,-11825,-2071,11779,370,-353,-337
16570,-11818,-2077,11786,370,-396,-329
16580,-11859,-2104,11788,347,-389,-325
16590,-11904,-2098,11796,354,-396,-311
16600,-11876,-2078,11791,347,-413,-286
16610,-11703,-2052,11782,358,-417,-310
16620,-11768,-2057,11758,365,-406,-336
16630,-11863,-2071,11750,342,-392,-330
16640,-11772,-2051,11799,339,-409,-335
16650,-11751,-2037,11807,342,-408,-345
16660,-11818,-2061,11835,353,-419,-333
16670,-11914,-2078,11844,377,-517,-290
16680,-11889,-2062,11843,410,-561,-266
16690,-11901,-2076,11837,437,-596,-250
16700,-11914,-2091,11833,403,-605,-239
16710,-11865,-2062,11812,413,-631,-232
16720,-11770,-2027,11780,383,-632,-251
16730,-11722,-1995,11741,356,-608,-264
16740,-11779,-2019,11793,336,-545,-291
16750,-11788,-2019,11796,311,-517,-296
16760,-11782,-2067,11832,339,-558,-285
16770,-11793,-2070,11834,356,-564,-266
16780,-11771,-2058,11854,368,-586,-272
16790,-11792,-2059,11849,374,-588,-270
16800,-11743,-2056,11865,364,-541,-259
16810,-11809,-2059,11829,373,-511,-255
16820,-11825,-2041,11867,356,-561,-264
16830,-11810,-2041,11852,350,-539,-269
16840,-11743,-2010,11837,348,-527,-295
16850,-11719,-2013,11844,348,-506,-307
16860,-11780,-1990,11872,345,-429,-330
16870,-11830,-2021,11845,334,-419,-323
16880,-11793,-2031,11861,322,-441,-309
16890,-11791,-2034,11850,346,-486,-325
16900,-11797,-2029,11870,366,-492,-319
16910,-11804,-2009,11878,377,-523,-321
16920,-11798,-2018,11871,372,-525,-306
16930,-11779,-2029,11859,353,-529,-294
16940,-11779,-2055,11861,321,-507,-282
16950,-11799,-2051,11872,320,-508,-291
16960,-11787,-2043,11868,323,-506,-290
16970,-11801,-2030,11877,325,-509,-300
16980,-11779,-2026,11867,349,-510,-319
16990,-11757,-2019,11863,329,-490,-307
17000,-11762,-2041,11866,365,-504,-327
17010,-11764,-2022,11876,358,-505,-325
17020,-11766,-2031,11877,341,-507,-307
17030,-11755,-2034,11875,356,-510,-305
17040,-11782,-2033,11879,356,-504,-298
17050,-11767,-2039,11860,350,-493,-284
17060,-11772,-2037,11859,359,-504,-296
17070,-11760,-2053,11868,334,-499,-293
17080,-11734,-2053,11865,352,-487,-311
17090,-11750,-2043,11863,357,-483,-326
17100,-11767,-2023,11877,322,-468,-313
17110,-11761,-2033,11903,327,-466,-319
17120,-11761,-2027,11882,337,-480,-327
17130,-11759,-2031,11899,339,-487,-326
17140,-11762,-2027,11892,354,-502,-317
17150,-11745,-2025,11897,327,-478,-286
17160,-11750,-2024,11895,329,-487,-292
17170,-11756,-2036,11882,331,-477,-290
17180,-11745,-2032,11895,363,-488,-300
17190,-11751,-2043,11871,342,-486,-298
17200,-11746,-2028,11884,320,-467,-291
17210,-11746,-2032,11887,350,-473,-304
17220,-11758,-2027,11901,318,-477,-305
17230,-11755,-2037,11887,334,-488,-310
17240,-11738,-2026,11912,329,-477,-306
17250,-11741,-2012,11907,329,-483,-310
17260,-11739,-2038,11910,334,-484,-327
17270,-11721,-2031,11901,323,-477,-329
17280,-11751,-2036,11887,351,-475,-318
17290,-11737,-2049,11895,337,-454,-309
17300,-11724,-2037,11895,337,-446,-309
17310,-11743,-2032,11890,333,-458,-332
17320,-11754,-2032,11900,342,-471,-328
17330,-11727,-2028,11896,346,-451,-317
17340,-11736,-2036,11895,344,-459,-318
17350,-11778,-2033,11877,360,-467,-324
17360,-11758,-2025,11920,364,-465,-334
17370,-11744,-2038,11901,315,-451,-305
17380,-11748,-2012,11916,336,-451,-305
17390,-11738,-2041,11907,355,-464,-298
17400,-11724,-2048,11894,350,-478,-322
17410,-11717,-2027,11882,340,-461,-309
17420,-11743,-2058,11885,341,-450,-317
17430,-11779,-2064,11902,341,-474,-300
17440,-11793,-2050,11906,354,-486,-277
17450,-11630,-1994,11882,356,-511,-299
17460,-11667,-2001,11860,344,-479,-310
17470,-11771,-2020,11831,319,-448,-325
17480,-11710,-2014,11900,342,-463,-357
17490,-11704,-2008,11916,332,-434,-343
17500,-11745,-2024,11929,341,-450,-347
17510,-11809,-2032,11961,355,-492,-285
17520,-11806,-2044,11949,358,-521,-267
17530,-11795,-2043,11916,396,-566,-266
17540,-11819,-2069,11899,410,-592,-286
17550,-11784,-2055,11895,365,-575,-252
17560,-11724,-2038,11885,362,-610,-260
17570,-11696,-1996,11863,340,-613,-258
17580,-11694,-2008,11891,327,-596,-288
17590,-11699,-2020,11894,315,-568,-288
17600,-11677,-2014,11883,294,-542,-291
17610,-11644,-2003,11898,308,-543,-300
17620,-11650,-2017,11931,332,-555,-300
17630,-11681,-2035,11956,338,-558,-291
17640,-11706,-2050,11974,355,-552,-305
17650,-11699,-2054,11980,365,-541,-284
17660,-11700,-2051,11972,346,-531,-268
17670,-11718,-2021,11926,358,-509,-284
17680,-11667,-1999,11954,351,-496,-280
17690,-11634,-1983,11923,375,-459,-306
17700,-11610,-1997,11968,363,-426,-323
17710,-11755,-1939,11830,366,-425,-306
17720,-11771,-2011,12041,318,-391,-326
17730,-11691,-2021,11948,331,-427,-308
17740,-11706,-1994,11942,373,-463,-336
17750,-11700,-1995,11955,381,-480,-328
17760,-11675,-1991,11992,374,-486,-308
17770,-11704,-1989,11953,370,-509,-305
17780,-11688,-1998,11962,338,-479,-291
17790,-11704,-1999,11952,334,-474,-307
17800,-11721,-1998,11942,338,-461,-313
17810,-11717,-2014,11922,333,-469,-318
17820,-11736,-2007,11949,343,-473,-313
17830,-11707,-2004,11935,366,-465,-327
17840,-11686,-2009,11940,376,-473,-343
17850,-11698,-2025,11940,354,-442,-329
17860,-11670,-2027,11957,349,-446,-323
17870,-11689,-2021,11958,348,-457,-318
17880,-11703,-2011,11959,357,-461,-309
17890,-11672,-2010,11953,348,-480,-308
17900,-11682,-2010,11966,351,-486,-310
17910,-11707,-2009,11947,352,-469,-310
17920,-11688,-2011,11925,333,-446,-294
17930,-11677,-2010,11940,338,-459,-315
17940,-11711,-1995,11948,329,-440,-310
17950,-11712,-2004,11957,321,-428,-320
17960,-11694,-2014,11955,354,-454,-334
17970,-11701,-2011,11949,307,-438,-312
17980,-11689,-2025,11946,325,-429,-322
17990,-11690,-2016,11951,324,-441,-318
18000,-11697,-2001,11941,328,-431,-300
18010,-11699,-2005,11968,339,-429,-308
18020,-11703,-1997,11943,340,-439,-308
18030,-11719,-2014,11941,340,-443,-310
18040,-11705,-2001,11943,350,-458,-317
18050,-11708,-2018,11926,336,-464,-335
18060,-11706,-1992,11945,329,-439,-310
18070,-11702,-2005,11940,318,-458,-314
18080,-11706,-2009,11943,330,-447,-310
18090,-11697,-2020,11944,320,-434,-313
18100,-11715,-2015,11948,342,-452,-329
18110,-11692,-2019,11961,338,-446,-315
18120,-11687,-2020,11941,332,-450,-322
18130,-11691,-2015,11944,348,-451,-321
18140,-11660,-2007,11958,337,-436,-323
18150,-11676,-2007,11955,327,-441,-310
18160,-11690,-2000,11951,325,-437,-311
18170,-11684,-2020,11941,346,-442,-328
18180,-11691,-2018,11912,346,-450,-323
18190,-11714,-2012,11924,321,-440,-310
18200,-11706,-2018,11948,314,-431,-316
18210,-11693,-2021,11954,317,-442,-318
18220,-11710,-2031,11943,334,-453,-320
18230,-11698,-2031,11954,345,-444,-294
18240,-11695,-2017,11956,357,-448,-291
18250,-11677,-2012,11944,355,-461,-301
18260,-11662,-2023,11953,337,-431,-305
18270,-11689,-2055,11936,333,-427,-313
18280,-11746,-2058,11948,322,-435,-300
18290,-11754,-2018,11928,349,-483,-276
18300,-11626,-1988,11945,342,-506,-274
18310,-11577,-1973,11930,353,-491,-296
18320,-11721,-2013,11918,348,-453,-340
18330,-11745,-2026,11900,350,-454,-357
18340,-11666,-1996,11933,346,-446,-355
18350,-11718,-2010,11975,336,-437,-353
18360,-11754,-2026,11992,347,-473,-315
18370,-11789,-2018,12029,381,-521,-289
18380,-11723,-2023,11991,412,-590,-265
18390,-11724,-2024,11969,371,-567,-259
18400,-11746,-2053,11971,373,-523,-266
18410,-11674,-2016,11938,331,-569,-256
18420,-11661,-2004,11916,344,-574,-272
18430,-11659,-1986,11950,340,-564,-278
18440,-11660,-1993,11942,317,-552,-309
18450,-11639,-1976,11945,326,-537,-310
18460,-11614,-2002,11932,341,-545,-313
18470,-11604,-2007,11930,333,-530,-301
18480,-11638,-2025,11969,341,-522,-293
18490,-11653,-2017,11976,378,-529,-292
18500,-11658,-2037,12004,387,-544,-297
18510,-11634,-2001,12025,382,-529,-288
18520,-11659,-2003,11992,356,-481,-271
18530,-11681,-2008,11986,366,-494,-273
18540,-11680,-2003,11983,363,-494,-277
18550,-11684,-1987,11968,350,-491,-277
18560,-11634,-1959,12011,350,-484,-291
18570,-11605,-1957,11960,344,-442,-309
18580,-11723,-1989,11988,332,-381,-338
18590,-11675,-1989,11949,338,-397,-324
18600,-11675,-2004,11981,363,-426,-327
18610,-11644,-1977,11983,355,-452,-323
18620,-11672,-1989,12007,379,-499,-324
18630,-11671,-1992,11979,340,-469,-305
18640,-11657,-1998,11963,346,-471,-307
18650,-11691,-1999,11982,338,-465,-323
18660,-11707,-1999,11974,332,-453,-329
18670,-11694,-1993,11961,336,-463,-330
18680,-11691,-1986,11959,364,-462,-314
18690,-11672,-1978,11960,339,-458,-326
18700,-11663,-1987,12002,336,-447,-326
18710,-11653,-2012,11984,336,-436,-324
18720,-11663,-2004,11994,338,-422,-320
18730,-11661,-2018,11992,339,-419,-311
18740,-11672,-2001,11981,353,-438,-319
18750,-11667,-2000,11973,354,-443,-307
18760,-11681,-2001,11973,362,-445,-321
18770,-11671,-2001,11950,342,-445,-322
18780,-11674,-2007,11972,354,-441,-315
18790,-11666,-1994,11964,324,-433,-317
18800,-11688,-1997,11981,315,-435,-322
18810,-11698,-1995,11991,330,-421,-325
18820,-11652,-1996,11964,336,-436,-335
18830,-11681,-2007,11956,338,-436,-330
18840,-11683,-2005,11969,333,-435,-317
18850,-11679,-1997,11965,335,-430,-310
18860,-11662,-1998,11968,350,-447,-320
18870,-11663,-1997,11987,349,-448,-316
18880,-11670,-1984,11974,324,-430,-304
18890,-11676,-1998,11968,306,-437,-317
18900,-11655,-1987,11976,327,-433,-321
18910,-11674,-2006,11967,324,-431,-314
18920,-11674,-2000,11959,333,-432,-325
18930,-11683,-1998,11976,341,-441,-326
18940,-11679,-2008,11968,322,-425,-317
18950,-11697,-2003,11976,332,-431,-318
18960,-11696,-2007,11975,333,-443,-319
18970,-11675,-2005,11966,330,-447,-315
18980,-11655,-2004,11968,339,-446,-318
18990,-11674,-1993,11982,335,-452,-312
19000,-11642,-1996,11978,336,-435,-297
19010,-11668,-2004,11973,308,-431,-319
19020,-11661,-2007,11961,350,-439,-312
19030,-11666,-2001,11946,312,-438,-304
19040,-11671,-2007,11968,355,-435,-328
19050,-11674,-2004,11962,334,-425,-318
19060,-11711,-1996,11942,346,-429,-319
19070,-11697,-2003,11986,332,-426,-304
19080,-11709,-2021,11975,349,-445,-319
19090,-11694,-2007,11965,349,-440,-304
19100,-11663,-1988,11949,337,-439,-304
19110,-11650,-2004,11961,325,-434,-308
19120,-11666,-2017,11974,333,-424,-317
19130,-11731,-2040,11968,342,-425,-307
19140,-11735,-2029,11957,348,-455,-297
19150,-11705,-2015,11953,346,-467,-290
19160,-11574,-1956,11929,352,-492,-316
19170,-11630,-1986,11921,345,-469,-341
19180,-11715,-2012,11921,328,-452,-336
19190,-11704,-2014,11949,338,-436,-345
19200,-11646,-1971,11979,363,-432,-357
19210,-11694,-2005,11992,347,-430,-336
19220,-11769,-2025,12028,365,-480,-323
19230,-11744,-2011,12043,385,-536,-292
19240,-11714,-2014,11983,427,-600,-261
19250,-11734,-2020,11976,393,-582,-251
19260,-11721,-2018,11970,385,-578,-254
19270,-11640,-1989,11950,347,-570,-260
19280,-11614,-1965,11969,321,-564,-269
19290,-11655,-1988,11976,315,-520,-294
19300,-11618,-1988,11969,319,-535,-323
19310,-11603,-1987,11947,305,-524,-317
19320,-11594,-2013,11952,315,-529,-298
19330,-11592,-2007,11994,322,-524,-301
19340,-11641,-1993,12015,369,-530,-306
19350,-11630,-1997,12016,380,-520,-291
19360,-11640,-2001,12038,346,-494,-274
19370,-11627,-2011,12020,364,-488,-275
19380,-11660,-2015,12010,376,-489,-279
19390,-11673,-1992,12005,351,-477,-270
19400,-11686,-1988,12008,382,-481,-301
19410,-11683,-1977,12011,374,-468,-308
19420,-11593,-1982,11954,327,-399,-320
19430,-11635,-1966,11978,312,-376,-339
19440,-11651,-1943,12018,304,-356,-332
19450,-11672,-1952,12005,290,-366,-331
19460,-11656,-1995,11983,334,-390,-327
19470,-11631,-1984,11959,353,-422,-340
19480,-11648,-1978,11984,355,-476,-307
19490,-11655,-2009,11998,352,-460,-315
19500,-11676,-1997,12009,330,-449,-302
19510,-11694,-2009,12000,327,-462,-331
19520,-11671,-2000,11979,323,-459,-324
19530,-11672,-2001,11979,329,-459,-313
19540,-11637,-1989,11961,346,-458,-311
19550,-11641,-1983,11966,336,-446,-319
19560,-11636,-1989,11983,320,-425,-316
19570,-11654,-2009,11988,350,-424,-322
19580,-11644,-2000,11997,347,-444,-327
19590,-11637,-2010,12002,343,-428,-308
19600,-11659,-1998,11983,346,-425,-303
19610,-11653,-2006,11983,336,-434,-315
19620,-11644,-1998,11992,328,-447,-324
19630,-11657,-2004,11982,326,-437,-317
19640,-11647,-1994,11984,327,-432,-323
19650,-11664,-1992,11988,314,-436,-325
19660,-11690,-2004,11984,344,-440,-331
19670,-11669,-1992,11989,333,-430,-327
19680,-11656,-1995,11999,329,-437,-327
19690,-11682,-1983,11976,335,-429,-316
19700,-11648,-1983,11990,340,-433,-316
19710,-11689,-2003,11981,339,-439,-306
19720,-11662,-2012,11976,346,-447,-300
19730,-11659,-1986,11978,345,-448,-313
19740,-11668,-2004,11979,329,-441,-317
19750,-11647,-1994,11968,321,-436,-334
19760,-11668,-1990,11973,327,-428,-341
19770,-11691,-2013,11979,331,-433,-340
19780,-11659,-2014,11990,340,-449,-331
19790,-11662,-1995,11988,350,-437,-327
19800,-11658,-1997,11991,338,-433,-331
19810,-11672,-1999,11987,338,-435,-313
19820,-11658,-2001,11975,340,-434,-324
19830,-11652,-2013,11984,338,-433,-306
19840,-11644,-1995,11976,349,-433,-319
19850,-11644,-1983,11975,351,-431,-330
19860,-11662,-1998,11988,330,-437,-326
19870,-11677,-2008,11970,325,-434,-316
19880,-11668,-1990,11963,328,-438,-339
19890,-11656,-1996,11966,346,-419,-324
19900,-11670,-1998,11984,322,-411,-327
19910,-11679,-2014,11986,330,-421,-322
19920,-11692,-2005,12005,340,-425,-327
19930,-11679,-2007,11980,354,-429,-324
19940,-11657,-2012,11970,336,-429,-320
19950,-11669,-1999,11981,335,-435,-324
19960,-11637,-1998,11969,327,-422,-320
19970,-11682,-2027,11977,326,-392,-337
19980,-11705,-2036,11970,321,-397,-320
19990,-11732,-2042,11978,340,-400,-302
20000,-11600,-1967,11987,351,-441,-297
20010,-11570,-1942,11959,340,-427,-318
20020,-11647,-1972,11912,329,-386,-329
20030,-11709,-1997,11917,325,-377,-354
20040,-11642,-1996,11955,325,-355,-369
20050,-11658,-1996,11986,334,-344,-362
20060,-11712,-1985,12014,355,-379,-353
20070,-11762,-2010,12032,368,-428,-306
20080,-11753,-2033,12010,379,-454,-277
20090,-11755,-2021,11992,395,-464,-276
20100,-11764,-2046,11977,389,-468,-270
20110,-11732,-2030,11948,391,-497,-304
20120,-11658,-1990,11937,356,-467,-290
20130,-11649,-1959,11949,335,-437,-298
20140,-11696,-2004,11919,334,-413,-328
20150,-11666,-2000,11909,307,-436,-307
20160,-11588,-1983,11937,321,-418,-311
20170,-11635,-2017,11959,336,-398,-333
20180,-11638,-2015,11950,361,-424,-341
20190,-11651,-2018,11929,355,-418,-331
20200,-11679,-2042,11976,370,-430,-295
20210,-11685,-2041,11952,401,-431,-306
20220,-11675,-2040,11940,390,-449,-303
20230,-11694,-2025,11949,382,-458,-298
20240,-11699,-2037,11941,391,-465,-291
20250,-11740,-2022,11938,384,-443,-285
20260,-11719,-1999,11944,392,-448,-283
20270,-11637,-1952,11916,370,-395,-319
20280,-11675,-1970,11917,333,-357,-310
20290,-11721,-1956,11956,332,-353,-325
20300,-11741,-2001,11936,334,-403,-317
20310,-11694,-2008,11924,334,-428,-319
20320,-11681,-1994,11898,335,-445,-316
20330,-11667,-1974,11943,358,-488,-316
20340,-11680,-2009,11945,342,-489,-290
20350,-11690,-2024,11951,337,-508,-309
20360,-11686,-2012,11941,355,-516,-308
20370,-11695,-1994,11959,347,-504,-317
20380,-11707,-1998,11934,347,-506,-311
20390,-11686,-1991,11936,345,-504,-315
20400,-11667,-1997,11960,359,-491,-332
20410,-11675,-2014,11936,322,-469,-313
20420,-11679,-2013,11984,347,-476,-312
20430,-11678,-2017,11952,347,-509,-322
20440,-11672,-2016,11962,341,-491,-318
20450,-11691,-2008,11964,338,-489,-300
20460,-11679,-2004,11956,332,-497,-296
20470,-11662,-1996,11960,339,-499,-309
20480,-11650,-1998,11962,334,-493,-309
20490,-11684,-2007,11953,318,-468,-311
20500,-11693,-2003,11975,335,-479,-335
20510,-11685,-2015,11979,335,-464,-331
20520,-11668,-2001,11965,319,-459,-316
20530,-11678,-2000,11962,302,-440,-302
20540,-11677,-1996,11955,339,-462,-315
20550,-11667,-1985,11975,333,-456,-315
20560,-11667,-1988,11954,343,-459,-308
20570,-11700,-2000,11973,339,-461,-299
20580,-11691,-1986,11960,333,-462,-297
20590,-11679,-1999,11959,330,-450,-320
20600,-11688,-2013,11963,344,-465,-325
20610,-11695,-2005,11956,325,-457,-316
20620,-11700,-2007,11987,340,-456,-323
20630,-11690,-1997,11976,337,-466,-330
20640,-11679,-2001,11968,336,-459,-312
20650,-11670,-1991,11974,324,-464,-320
20660,-11655,-2002,11984,328,-469,-324
20670,-11663,-2026,11983,340,-469,-331
20680,-11647,-2005,11985,311,-457,-313
20690,-11643,-2009,11961,332,-461,-322
20700,-11648,-2010,11958,316,-446,-308
20710,-11672,-2021,11964,330,-457,-312
20720,-11671,-2010,11981,357,-454,-320
20730,-11669,-2004,11955,330,-453,-315
20740,-11675,-2005,11960,359,-451,-322
20750,-11681,-2007,11984,362,-433,-320
20760,-11700,-2022,11978,346,-436,-315
20770,-11687,-2018,11990,348,-443,-312
20780,-11699,-2029,11947,342,-443,-308
20790,-11668,-2001,11980,341,-448,-304
20800,-11658,-2013,11948,359,-466,-309
20810,-11665,-2033,11973,318,-440,-308
20820,-11736,-2043,11962,336,-455,-293
20830,-11750,-2037,11949,362,-486,-282
20840,-11660,-1983,12001,349,-495,-269
20850,-11582,-1946,11934,340,-492,-320
20860,-11667,-1990,11928,356,-475,-340
20870,-11707,-1994,11929,344,-445,-332
20880,-11620,-1980,11987,335,-420,-341
20890,-11654,-2000,11994,344,-445,-349
20900,-11732,-2001,12009,356,-473,-317
20910,-11730,-2019,12014,390,-546,-269
20920,-11665,-2002,12018,390,-546,-268
20930,-11745,-2034,11941,376,-498,-268
20940,-11778,-2050,11998,382,-548,-270
20950,-11704,-2021,11946,382,-563,-270
20960,-11622,-1990,11954,349,-553,-255
20970,-11626,-1974,11945,337,-555,-276
20980,-11639,-1989,11951,318,-531,-308
20990,-11630,-1988,11946,310,-522,-297
21000,-11594,-1994,11959,293,-521,-306
21010,-11580,-1980,11975,320,-533,-300
21020,-11619,-2002,12009,348,-531,-289
21030,-11622,-2007,12030,358,-537,-287
21040,-11621,-1997,12025,365,-543,-286
21050,-11618,-2003,12029,375,-519,-288
21060,-11644,-1997,12011,385,-513,-299
21070,-11651,-1997,12021,376,-492,-271
21080,-11660,-1996,11991,363,-486,-273
21090,-11681,-1995,11969,353,-494,-284
21100,-11637,-1977,12011,368,-499,-295
21110,-11605,-1975,11969,322,-412,-314
21120,-11631,-1960,12017,314,-396,-328
21130,-11646,-1942,11996,319,-381,-326
21140,-11664,-1969,12002,329,-397,-324
21150,-11659,-1997,11999,341,-448,-333
21160,-11651,-1982,12006,362,-469,-339
21170,-11609,-1984,12013,368,-462,-315
21180,-11613,-1990,12006,336,-480,-305
21190,-11627,-1991,12027,351,-473,-286
21200,-11626,-1990,12015,347,-476,-297
21210,-11648,-1997,12004,357,-467,-308
21220,-11652,-1996,12017,321,-452,-303
21230,-11649,-1993,11999,334,-450,-312
21240,-11638,-1985,12010,337,-455,-308
21250,-11639,-1993,11977,331,-453,-319
21260,-11616,-1991,11988,346,-457,-326
21270,-11639,-2008,11973,330,-445,-338
21280,-11638,-1979,12005,331,-440,-329
21290,-11644,-2001,12004,325,-432,-310
21300,-11646,-1989,11997,336,-471,-303
21310,-11640,-1991,11985,360,-489,-316
21320,-11656,-1985,12000,335,-481,-308
21330,-11617,-1985,11981,335,-470,-315
21340,-11622,-1968,12019,325,-434,-306
21350,-11637,-1972,12034,341,-443,-319
21360,-11647,-1989,12020,341,-439,-332
21370,-11614,-1989,12019,317,-427,-317
21380,-11646,-1973,12002,332,-431,-321
21390,-11640,-1987,12022,346,-439,-326
21400,-11630,-1988,12008,314,-438,-315
21410,-11630,-1998,12010,324,-428,-314
21420,-11640,-1973,11989,336,-449,-327
21430,-11645,-1982,12003,302,-454,-322
21440,-11664,-1990,11986,326,-420,-327
21450,-11676,-2011,12000,329,-433,-333
21460,-11667,-2000,11994,329,-434,-327
21470,-11649,-2013,11998,342,-448,-330
21480,-11650,-1999,11993,315,-462,-323
21490,-11648,-2006,12013,323,-460,-312
21500,-11659,-2027,12004,345,-471,-315
21510,-11630,-2006,11992,343,-465,-319
21520,-11634,-2005,12002,328,-462,-315
21530,-11637,-2007,11999,355,-437,-316
21540,-11640,-2014,11999,368,-443,-335
21550,-11659,-2015,11999,335,-452,-316
21560,-11627,-1988,12015,370,-459,-325
21570,-11637,-1996,12024,353,-427,-306
21580,-11647,-2000,12020,376,-440,-298
21590,-11662,-2008,12011,366,-448,-301
21600,-11630,-1994,11993,367,-452,-295
21610,-11622,-1985,12006,375,-457,-290
21620,-11612,-1986,11981,378,-450,-300
21630,-11674,-2024,11987,345,-417,-297
21640,-11700,-1988,12007,369,-454,-293
21650,-11718,-1999,11987,379,-480,-281
21660,-11617,-1974,12000,378,-508,-272
21670,-11575,-1948,11960,356,-459,-285
21680,-11641,-1966,11958,361,-448,-313
21690,-11670,-1983,11963,348,-436,-318
21700,-11593,-1963,12029,354,-437,-335
21710,-11643,-1959,12033,346,-420,-327
21720,-11691,-1980,12045,387,-453,-318
21730,-11703,-1978,12049,394,-486,-300
21740,-11675,-1983,12012,379,-540,-244
21750,-11656,-1982,12023,372,-545,-247
21760,-11709,-2012,12027,389,-554,-270
21770,-11682,-2008,11975,369,-566,-245
21780,-11596,-1969,11984,375,-597,-253
21790,-11578,-1947,11988,352,-594,-257
21800,-11582,-1965,12096,340,-572,-278
21810,-11609,-1911,11880,372,-612,-256
21820,-11589,-1960,12066,318,-514,-284
21830,-11547,-1972,12003,329,-529,-296
21840,-11598,-1981,12034,331,-513,-299
21850,-11614,-1990,12041,363,-520,-311
21860,-11606,-1971,12085,349,-514,-304
21870,-11617,-1982,12052,356,-498,-299
21880,-11619,-1996,12053,383,-497,-284
21890,-11653,-1971,12066,403,-512,-275
21900,-11621,-1996,12029,391,-525,-284
21910,-11623,-1944,12004,359,-484,-250
21920,-11595,-1948,12023,358,-465,-265
21930,-11521,-1926,12026,346,-446,-292
21940,-11591,-1966,12053,329,-378,-310
21950,-11629,-1944,12050,351,-368,-299
21960,-11662,-1957,12039,328,-379,-310
21970,-11623,-1956,12036,361,-422,-315
21980,-11632,-1954,12048,345,-423,-305
21990,-11626,-1960,12041,356,-440,-314
22000,-11602,-1949,12031,350,-450,-289
22010,-11620,-1956,12038,354,-451,-281
22020,-11613,-1949,12024,343,-440,-286
22030,-11640,-1952,12035,345,-440,-310
22040,-11655,-1968,12023,323,-429,-331
22050,-11660,-1959,12007,324,-433,-338
22060,-11622,-1943,12021,347,-436,-328
22070,-11614,-1945,12029,337,-430,-321
22080,-11604,-1948,12035,339,-419,-335
22090,-11609,-1958,12040,337,-410,-337
22100,-11612,-1949,12037,344,-413,-328
22110,-11613,-1947,12038,310,-392,-317
22120,-11595,-1955,12031,319,-394,-318
22130,-11607,-1977,12049,336,-411,-319
22140,-11615,-1966,12026,309,-375,-308
22150,-11619,-1972,12018,328,-373,-320
22160,-11603,-1976,12013,311,-375,-323
22170,-11637,-1981,12025,307,-365,-335
22180,-11622,-1974,12019,310,-354,-342
22190,-11629,-1958,12046,289,-337,-343
22200,-11644,-1962,12017,327,-337,-368
22210,-11640,-1952,12013,323,-347,-335
22220,-11671,-1986,12011,322,-339,-341
22230,-11657,-1986,11998,336,-354,-334
22240,-11652,-1988,11979,339,-362,-344
22250,-11645,-1982,12015,337,-365,-334
22260,-11668,-1969,11977,337,-351,-337
22270,-11682,-1988,11979,357,-355,-346
22280,-11673,-1981,12003,343,-340,-324
22290,-11665,-1992,11975,345,-352,-329
22300,-11652,-1973,11962,348,-363,-342
22310,-11660,-1979,11974,331,-351,-354
22320,-11647,-1965,11973,328,-352,-357
22330,-11683,-1983,11935,329,-343,-348
22340,-11684,-2004,11949,334,-368,-348
22350,-11677,-2006,11943,335,-373,-338
22360,-11665,-1977,11947,361,-390,-358
22370,-11662,-1990,11946,347,-400,-344
22380,-11679,-1999,11951,345,-395,-323
22390,-11681,-2014,11955,349,-421,-323
22400,-11697,-2014,11951,340,-433,-317
22410,-11697,-2008,11948,359,-441,-304
22420,-11645,-1988,11935,345,-439,-293
22430,-11695,-2012,11938,321,-452,-296
22440,-11720,-2039,11909,340,-469,-302
22450,-11735,-2004,11957,360,-521,-281
22460,-11629,-1954,11960,343,-536,-265
22470,-11530,-1921,11960,353,-520,-278
22480,-11684,-1978,11902,320,-472,-308
22490,-11691,-1979,11937,359,-483,-339
22500,-11623,-1960,12005,356,-462,-342
22510,-11687,-1995,12016,334,-472,-324
22520,-11733,-1997,12051,386,-504,-303
22530,-11715,-2005,11996,412,-592,-247
22540,-11709,-1990,11996,414,-615,-222
22550,-11717,-2027,12010,413,-619,-238
22560,-11727,-2023,12003,404,-584,-254
22570,-11680,-1971,11942,355,-557,-250
22580,-11625,-1949,11949,370,-603,-257
22590,-11630,-1946,11936,352,-584,-256
22600,-11645,-1950,11974,316,-534,-275
22610,-11616,-1951,11961,346,-548,-308
22620,-11597,-1962,11981,359,-545,-303
22630,-11610,-1962,11995,352,-553,-298
22640,-11621,-1979,12008,355,-544,-289
22650,-11625,-1974,12028,361,-549,-278
22660,-11624,-1959,12036,329,-528,-270
22670,-11613,-1968,12034,399,-529,-280
22680,-11630,-1979,12013,378,-508,-282
22690,-11637,-1959,12019,359,-495,-272
22700,-11653,-1956,11995,366,-506,-281
22710,-11670,-1954,12007,371,-498,-277
22720,-11564,-1920,11986,352,-448,-318
22730,-11606,-1942,11989,334,-402,-312
22740,-11616,-1938,12039,323,-397,-319
22750,-11678,-1977,11995,308,-390,-310
22760,-11641,-1948,12007,320,-421,-310
22770,-11627,-1962,11995,364,-461,-320
22780,-11614,-1934,12037,361,-479,-310
22790,-11635,-1954,12034,362,-481,-295
22800,-11629,-1945,12049,351,-482,-280
22810,-11631,-1968,12037,351,-476,-291
22820,-11636,-1962,12022,349,-467,-304
22830,-11655,-1952,12040,309,-450,-292
22840,-11647,-1956,12035,326,-453,-303
22850,-11648,-1945,12014,333,-464,-313
22860,-11647,-1940,12019,338,-489,-337
22870,-11625,-1949,12010,348,-474,-329
22880,-11627,-1942,11999,383,-464,-332
22890,-11622,-1955,12013,353,-464,-321
22900,-11617,-1963,12032,346,-465,-302
22910,-11625,-1966,12017,341,-464,-299
22920,-11618,-1956,12019,328,-469,-298
22930,-11611,-1957,12027,332,-466,-299
22940,-11608,-1944,12014,341,-464,-312
22950,-11638,-1959,12010,328,-460,-305
22960,-11644,-1957,12018,323,-473,-330
22970,-11627,-1943,12031,324,-480,-334
22980,-11616,-1965,12036,330,-444,-310
22990,-11611,-1940,12045,335,-451,-318
23000,-11604,-1949,12043,324,-456,-319
23010,-11581,-1956,12016,315,-434,-315
23020,-11617,-1936,12016,326,-426,-303
23030,-11614,-1954,12026,327,-438,-307
23040,-11608,-1945,12021,326,-417,-302
23050,-11653,-1976,12008,320,-421,-319
23060,-11636,-1962,12018,342,-455,-321
23070,-11621,-1964,12025,323,-453,-331
23080,-11633,-1953,12026,343,-471,-324
23090,-11621,-1966,12030,355,-483,-329
23100,-11609,-1976,12020,327,-482,-325
23110,-11619,-1973,12021,347,-473,-316
23120,-11611,-1967,12034,343,-464,-316
23130,-11617,-1955,12038,348,-455,-310
23140,-11636,-1953,12037,367,-466,-332
23150,-11619,-1967,12030,341,-447,-306
23160,-11617,-1979,12035,344,-454,-306
23170,-11615,-1981,12036,355,-467,-312
23180,-11603,-1975,12013,352,-450,-303
23190,-11599,-1971,12038,348,-472,-319
23200,-11615,-2007,12003,356,-476,-318
23210,-11676,-1990,12027,343,-469,-277
23220,-11700,-1982,12035,351,-517,-280
23230,-11654,-1957,12037,363,-543,-276
23240,-11495,-1901,12026,353,-509,-284
23250,-11584,-1937,12014,319,-460,-298
23260,-11664,-1945,11972,318,-444,-319
23270,-11586,-1926,12026,330,-448,-333
23280,-11573,-1910,12049,329,-434,-326
23290,-11631,-1953,12086,345,-460,-313
23300,-11694,-1952,12097,358,-498,-296
23310,-11653,-1958,12081,379,-550,-269
23320,-11653,-1976,12038,386,-544,-256
23330,-11663,-1982,12035,378,-550,-262
23340,-11659,-1993,12016,380,-623,-264
23350,-11594,-1952,12079,386,-647,-259
23360,-11594,-1952,12084,326,-602,-272
23370,-11581,-1925,12041,342,-584,-297
23380,-11548,-1922,12050,330,-552,-286
23390,-11515,-1943,12058,324,-544,-303
23400,-11538,-1944,12049,322,-527,-281
23410,-11554,-1940,12076,353,-551,-288
23420,-11567,-1964,12068,367,-557,-293
23430,-11553,-1954,12118,369,-542,-269
23440,-11560,-1961,12116,371,-539,-265
23450,-11552,-1932,12087,395,-528,-269
23460,-11568,-1936,12084,386,-521,-281
23470,-11589,-1914,12074,368,-483,-264
23480,-11626,-1946,12071,368,-489,-276
23490,-11612,-1931,12077,364,-487,-285
23500,-11527,-1914,12054,321,-415,-291
23510,-11565,-1914,12050,317,-395,-310
23520,-11590,-1898,12104,323,-381,-316
23530,-11627,-1896,12082,321,-387,-318
23540,-11566,-1918,12062,337,-422,-322
23550,-11571,-1918,12062,358,-441,-317
23560,-11572,-1925,12101,363,-466,-318
23570,-11590,-1929,12097,356,-493,-312
23580,-11574,-1942,12076,348,-503,-309
23590,-11560,-1937,12055,345,-481,-320
23600,-11579,-1935,12081,324,-462,-312
23610,-11592,-1943,12065,328,-465,-330
23620,-11596,-1951,12074,353,-476,-310
23630,-11581,-1923,12085,348,-473,-310
23640,-11581,-1939,12070,328,-467,-310
23650,-11561,-1941,12085,323,-467,-323
23660,-11558,-1946,12075,340,-460,-325
23670,-11553,-1934,12096,355,-453,-325
23680,-11554,-1947,12094,347,-444,-309
23690,-11573,-1937,12089,356,-466,-307
23700,-11559,-1938,12088,354,-466,-299
23710,-11580,-1926,12069,334,-453,-303
23720,-11564,-1919,12100,336,-451,-306
23730,-11573,-1916,12078,324,-443,-308
23740,-11578,-1930,12064,323,-440,-322
23750,-11559,-1953,12069,329,-423,-327
23760,-11565,-1932,12098,339,-426,-339
23770,-11562,-1917,12088,318,-407,-330
23780,-11567,-1932,12106,325,-402,-327
23790,-11563,-1927,12075,332,-395,-313
23800,-11585,-1932,12092,333,-383,-310
23810,-11569,-1930,12058,321,-375,-309
23820,-11594,-1944,12053,351,-382,-315
23830,-11579,-1935,12071,343,-401,-329
23840,-11578,-1954,12084,357,-411,-338
23850,-11599,-1953,12077,364,-392,-323
23860,-11602,-1925,12068,345,-383,-330
23870,-11594,-1958,12079,337,-378,-337
23880,-11594,-1934,12088,323,-369,-339
23890,-11582,-1930,12060,318,-366,-350
23900,-11584,-1946,12061,334,-363,-347
23910,-11620,-1961,12067,330,-351,-334
23920,-11607,-1964,12050,322,-357,-340
23930,-11623,-1966,12037,304,-371,-346
23940,-11615,-1946,12062,311,-367,-337
23950,-11608,-1950,12068,345,-394,-334
23960,-11604,-1943,12052,349,-397,-334
23970,-11586,-1955,12058,355,-397,-313
23980,-11591,-1958,12046,339,-399,-322
23990,-11573,-1945,12040,319,-385,-311
24000,-11615,-1964,12021,334,-387,-325
24010,-11630,-1997,12050,357,-397,-327
24020,-11693,-1969,12032,360,-423,-304
24030,-11670,-1961,11980,334,-403,-348
24040,-11602,-1957,11999,345,-407,-371
24050,-11574,-1929,12007,344,-403,-366
24060,-11591,-1949,12012,339,-403,-357
24070,-11665,-1969,12070,355,-464,-310
24080,-11691,-1962,12067,352,-495,-277
24090,-11676,-1969,12052,388,-547,-262
24100,-11680,-1987,12047,402,-578,-261
24110,-11677,-1980,12048,391,-577,-251
24120,-11632,-1959,12019,391,-589,-268
24130,-11572,-1923,12018,351,-583,-272
24140,-11596,-1918,12045,297,-533,-277
24150,-11585,-1939,12032,299,-532,-308
24160,-11551,-1936,12025,323,-502,-309
24170,-11534,-1927,12015,304,-499,-310
24180,-11542,-1953,12046,357,-508,-301
24190,-11564,-1955,12039,347,-517,-289
24200,-11572,-1958,12080,350,-521,-289
24210,-11579,-1942,12078,373,-518,-275
24220,-11586,-1964,12083,382,-498,-266
24230,-11583,-1959,12056,392,-510,-272
24240,-11621,-1956,12058,383,-502,-269
24250,-11617,-1953,12039,400,-509,-285
24260,-11648,-1946,12049,380,-487,-275
24270,-11531,-1872,12066,351,-462,-317
24280,-11529,-1896,12039,323,-423,-325
24290,-11592,-1922,12083,307,-390,-336
24300,-11627,-1907,12064,309,-393,-322
24310,-11595,-1935,12063,316,-430,-329
24320,-11568,-1925,12026,336,-448,-338
24330,-11579,-1933,12069,361,-487,-334
24340,-11588,-1925,12100,367,-483,-318
24350,-11585,-1922,12087,350,-493,-303
24360,-11573,-1919,12066,335,-500,-287
24370,-11593,-1945,12058,328,-477,-303
24380,-11618,-1931,12056,341,-472,-314
24390,-11602,-1938,12059,321,-468,-317
24400,-11598,-1946,12058,359,-491,-315
24410,-11580,-1941,12071,338,-495,-314
24420,-11585,-1927,12078,339,-476,-326
24430,-11555,-1927,12103,346,-470,-332
24440,-11548,-1941,12073,337,-446,-333
24450,-11565,-1950,12074,310,-426,-312
24460,-11574,-1965,12049,328,-435,-319
24470,-11582,-1943,12082,337,-434,-298
24480,-11580,-1940,12079,346,-452,-315
24490,-11594,-1951,12072,351,-444,-312
24500,-11591,-1955,12071,347,-454,-313
24510,-11576,-1935,12047,331,-438,-318
24520,-11582,-1917,12056,334,-433,-317
24530,-11582,-1923,12062,309,-432,-319
24540,-11592,-1924,12075,309,-423,-318
24550,-11595,-1921,12075,311,-429,-319
24560,-11561,-1924,12083,330,-430,-318
24570,-11594,-1927,12088,339,-431,-317
24580,-11591,-1934,12062,340,-423,-301
24590,-11587,-1918,12031,319,-432,-302
24600,-11588,-1941,12068,330,-448,-309
24610,-11590,-1941,12052,342,-443,-311
24620,-11575,-1923,12064,328,-449,-318
24630,-11588,-1952,12059,359,-448,-335
24640,-11581,-1929,12052,331,-452,-327
24650,-11571,-1949,12060,322,-437,-318
24660,-11573,-1933,12049,307,-422,-312
24670,-11579,-1952,12059,322,-432,-332
24680,-11576,-1966,12065,317,-421,-321
24690,-11589,-1961,12067,325,-421,-325
24700,-11587,-1953,12056,326,-427,-319
24710,-11593,-1946,12046,339,-429,-318
24720,-11598,-1962,12083,323,-429,-316
24730,-11604,-1968,12076,356,-445,-333
24740,-11606,-1965,12062,358,-442,-323
24750,-11592,-1965,12053,370,-444,-318
24760,-11596,-1946,12043,348,-439,-299
24770,-11577,-1928,12026,335,-444,-302
24780,-11582,-1944,12027,337,-450,-323
24790,-11640,-1979,12046,325,-436,-298
24800,-11674,-1948,12040,347,-480,-297
24810,-11635,-1962,12060,350,-503,-277
24820,-11478,-1890,12022,354,-488,-284
24830,-11547,-1902,12025,340,-486,-323
24840,-11599,-1936,12027,340,-457,-339
24850,-11566,-1919,12061,318,-442,-338
24860,-11556,-1917,12069,334,-438,-346
24870,-11608,-1941,12081,354,-460,-354
24880,-11633,-1950,12103,384,-486,-333
24890,-11646,-1969,12099,400,-561,-262
24900,-11622,-1958,12076,408,-600,-259
24910,-11611,-1974,12054,394,-608,-260
24920,-11648,-1982,12046,382,-333,-285
24930,-11669,-1962,12049,372,-528,-296
24940,-11522,-1916,12041,314,-505,-288
24950,-11504,-1910,12050,318,-515,-301
24960,-11491,-1929,12041,332,-507,-305
24970,-11531,-1957,12090,352,-516,-313
24980,-11531,-1964,12100,361,-511,-292
24990,-11550,-1941,12113,378,-508,-301
25000,-11556,-1950,12102,356,-469,-275
25010,-11547,-1934,12104,369,-485,-281
25020,-11558,-1935,12096,374,-483,-285
25030,-11613,-1928,12078,363,-474,-295
25040,-11611,-1928,12138,350,-460,-284
25050,-11533,-1904,12124,370,-463,-298
25060,-11494,-1867,12065,336,-430,-315
25070,-11569,-1873,12081,287,-344,-342
25080,-11602,-1877,12063,299,-345,-336
25090,-11620,-1937,12071,343,-391,-345
25100,-11583,-1935,12053,332,-428,-338
25110,-11550,-1918,12078,338,-453,-299
25120,-11561,-1939,12096,350,-469,-310
25130,-11556,-1932,12127,338,-478,-305
25140,-11536,-1946,12130,353,-482,-309
25150,-11579,-1921,12093,353,-486,-308
25160,-11584,-1935,12079,321,-466,-303
25170,-11587,-1939,12085,329,-462,-312
25180,-11592,-1946,12093,344,-490,-320
25190,-11586,-1929,12066,378,-494,-330
25200,-11531,-1913,12083,368,-482,-324
25210,-11527,-1919,12080,364,-464,-332
25220,-11552,-1912,12070,350,-444,-316
25230,-11564,-1917,12085,340,-434,-312
25240,-11550,-1932,12075,339,-421,-310
25250,-11567,-1934,12106,365,-442,-330
25260,-11567,-1944,12081,347,-449,-328
25270,-11561,-1937,12096,340,-443,-306
25280,-11572,-1928,12084,322,-458,-308
25290,-11577,-1909,12079,337,-459,-318
25300,-11577,-1912,12056,318,-441,-319
25310,-11567,-1906,12091,305,-437,-319
25320,-11572,-1918,12088,307,-442,-329
25330,-11581,-1934,12070,381,-454,-331
25340,-11568,-1916,12078,320,-440,-327
25350,-11562,-1926,12084,335,-447,-309
25360,-11562,-1918,12090,310,-447,-304
25370,-11572,-1937,12077,311,-440,-304
25380,-11564,-1929,12096,323,-452,-310
25390,-11564,-1932,12094,339,-458,-322
25400,-11546,-1933,12061,353,-453,-317
25410,-11570,-1924,12068,363,-463,-332
25420,-11572,-1929,12074,321,-440,-319
25430,-11551,-1946,12051,333,-452,-315
25440,-11568,-1937,12079,339,-447,-326
25450,-11552,-1924,12089,340,-449,-318
25460,-11561,-1938,12090,332,-436,-313
25470,-11558,-1926,12104,333,-437,-308
25480,-11544,-1926,12077,334,-442,-303
25490,-11550,-1923,12100,314,-429,-311
25500,-11569,-1933,12090,334,-429,-329
25510,-11565,-1948,12093,342,-420,-316
25520,-11565,-1930,12104,334,-412,-313
25530,-11572,-1934,12112,334,-410,-319
25540,-11573,-1945,12089,363,-418,-305
25550,-11576,-1945,12075,386,-444,-308
25560,-11569,-1940,12070,390,-438,-313
25570,-11541,-1918,12069,374,-431,-328
25580,-11544,-1925,12065,344,-409,-311
25590,-11589,-1955,12053,344,-411,-314
25600,-11633,-1978,12056,348,-425,-313
25610,-11650,-1949,12089,346,-456,-284
25620,-11561,-1915,12079,371,-495,-289
25630,-11492,-1877,12037,369,-484,-328
25640,-11560,-1908,12047,317,-429,-328
25650,-11607,-1947,12025,320,-422,-335
25660,-11560,-1917,12060,330,-412,-332
25670,-11578,-1907,12118,347,-413,-335
25680,-11615,-1930,12124,372,-455,-321
25690,-11618,-1937,12138,384,-492,-296
25700,-11608,-1933,12059,412,-580,-258
25710,-11615,-1942,12079,366,-578,-258
25720,-11628,-1971,12108,389,-589,-272
25730,-11634,-1964,12055,366,-492,-283
25740,-11531,-1915,12098,347,-565,-259
25750,-11531,-1913,12049,329,-546,-273
25760,-11540,-1903,12093,311,-515,-288
25770,-11517,-1914,12061,311,-485,-290
25780,-11487,-1899,12043,342,-490,-298
25790,-11484,-1899,12051,330,-479,-292
25800,-11517,-1931,12105,333,-491,-289
25810,-11548,-1933,12116,375,-508,-304
25820,-11552,-1939,12123,365,-512,-303
25830,-11530,-1920,12107,369,-504,-291
25840,-11556,-1898,12122,365,-483,-287
25850,-11582,-1892,12099,364,-467,-304
25860,-11488,-1869,12107,308,-431,-305
25870,-11506,-1886,12071,337,-402,-331
25880,-11556,-1884,12115,302,-354,-327
25890,-11613,-1896,12079,291,-356,-337
25900,-11582,-1934,12070,310,-399,-351
25910,-11530,-1909,12064,338,-420,-338
25920,-11554,-1914,12109,349,-441,-326
25930,-11555,-1925,12138,360,-445,-320
25940,-11561,-1942,12128,336,-465,-313
25950,-11562,-1927,12103,348,-465,-305
25960,-11578,-1917,12111,328,-460,-310
25970,-11577,-1927,12111,324,-444,-310
25980,-11576,-1923,12094,326,-449,-307
25990,-11573,-1908,12098,352,-454,-310
26000,-11557,-1909,12085,351,-473,-309
26010,-11534,-1914,12082,367,-472,-329
26020,-11520,-1904,12083,342,-445,-341
26030,-11519,-1920,12086,341,-440,-329
26040,-11545,-1924,12100,334,-426,-323
26050,-11544,-1932,12097,356,-449,-325
26060,-11542,-1925,12110,348,-449,-313
26070,-11564,-1934,12108,352,-447,-310
26080,-11556,-1924,12103,345,-456,-311
26090,-11562,-1941,12082,327,-453,-315
26100,-11558,-1915,12087,331,-456,-319
26110,-11571,-1919,12097,339,-465,-342
26120,-11561,-1921,12095,343,-442,-322
26130,-11571,-1898,12090,330,-423,-312
26140,-11551,-1916,12113,333,-441,-320
26150,-11566,-1920,12100,346,-426,-312
26160,-11595,-1912,12106,326,-419,-306
26170,-11557,-1942,12097,342,-440,-302
26180,-11569,-1931,12105,350,-457,-298
26190,-11555,-1915,12093,356,-455,-306
26200,-11549,-1925,12090,338,-453,-297
26210,-11555,-1915,12077,342,-454,-306
26220,-11563,-1925,12084,332,-454,-312
26230,-11552,-1919,12085,362,-466,-319
26240,-11560,-1914,12104,349,-460,-311
26250,-11564,-1925,12109,349,-470,-325
26260,-11570,-1920,12113,345,-457,-308
26270,-11563,-1936,12113,353,-462,-304
26280,-11563,-1927,12107,345,-467,-320
26290,-11534,-1932,12097,344,-463,-321
26300,-11527,-1901,12094,337,-453,-313
26310,-11547,-1924,12094,335,-455,-316
26320,-11535,-1923,12084,324,-456,-317
26330,-11564,-1926,12100,345,-453,-321
26340,-11556,-1917,12075,339,-467,-318
26350,-11548,-1916,12107,359,-458,-324
26360,-11566,-1925,12115,352,-449,-309
26370,-11559,-1920,12099,363,-459,-304
26380,-11562,-1915,12122,371,-473,-307
26390,-11544,-1905,12111,341,-468,-304
26400,-11547,-1911,12107,344,-457,-300
26410,-11559,-1928,12087,340,-456,-320
26420,-11597,-1952,12095,336,-458,-321
26430,-11610,-1929,12123,333,-458,-292
26440,-11582,-1925,12108,352,-480,-287
26450,-11455,-1869,12108,345,-491,-276
26460,-11469,-1868,12100,342,-488,-303
26470,-11577,-1908,12046,342,-441,-338
26480,-11571,-1925,12053,331,-438,-355
26490,-11497,-1900,12093,323,-426,-361
26500,-11537,-1898,12134,333,-425,-354
26510,-11618,-1920,12149,372,-495,-328
26520,-11610,-1919,12140,384,-541,-294
26530,-11614,-1927,12107,383,-577,-273
26540,-11605,-1946,12125,374,-568,-263
26550,-11623,-1979,12118,391,-538,-276
26560,-11630,-1968,12098,368,-525,-278
26570,-11519,-1892,12083,323,-559,-273
26580,-11510,-1885,12107,320,-563,-288
26590,-11545,-1900,12099,338,-546,-300
26600,-11476,-1901,12084,322,-534,-304
26610,-11463,-1908,12080,330,-516,-306
26620,-11451,-1906,12090,337,-521,-302
26630,-11479,-1913,12092,345,-525,-285
26640,-11486,-1904,12141,344,-524,-288
26650,-11498,-1914,12168,374,-528,-293
26660,-11521,-1917,12167,350,-513,-268
26670,-11524,-1919,12155,385,-496,-264
26680,-11697,-1906,12369,363,-493,-272
26690,-11591,-1896,12021,413,-579,-250
26700,-11548,-1901,12137,373,-514,-273
26710,-11470,-1852,12128,350,-460,-300
26720,-11428,-1855,12114,328,-415,-314
26730,-11490,-1880,12089,308,-367,-329
26740,-11557,-1853,12169,304,-343,-324
26750,-11525,-1896,12136,349,-458,-327
26760,-11502,-1896,12153,337,-463,-321
26770,-11516,-1894,12153,352,-467,-319
26780,-11514,-1915,12144,332,-460,-288
26790,-11521,-1908,12130,352,-467,-314
26800,-11520,-1905,12138,350,-454,-322
26810,-11551,-1917,12132,332,-446,-308
26820,-11560,-1919,12125,315,-463,-312
26830,-11540,-1908,12114,352,-479,-317
26840,-11508,-1901,12117,330,-455,-322
26850,-11519,-1904,12138,343,-445,-320
26860,-11486,-1914,12122,335,-448,-328
26870,-11485,-1918,12131,339,-437,-317
26880,-11513,-1908,12135,349,-443,-316
26890,-11531,-1917,12135,344,-453,-319
26900,-11538,-1918,12137,359,-452,-308
26910,-11528,-1912,12128,333,-444,-307
26920,-11538,-1889,12125,309,-444,-308
26930,-11534,-1879,12125,329,-437,-301
26940,-11539,-1896,12124,332,-438,-315
26950,-11548,-1899,12142,330,-438,-328
26960,-11533,-1900,12129,331,-413,-320
26970,-11546,-1893,12116,331,-424,-331
26980,-11538,-1895,12125,358,-436,-332
26990,-11548,-1903,12138,357,-415,-314
27000,-11528,-1914,12109,366,-438,-313
27010,-11528,-1906,12128,354,-445,-308
27020,-11540,-1898,12129,351,-445,-308
27030,-11519,-1897,12124,353,-436,-317
27040,-11537,-1900,12128,328,-438,-301
27050,-11547,-1909,12109,364,-459,-312
27060,-11525,-1913,12100,340,-448,-325
27070,-11534,-1897,12128,326,-450,-316
27080,-11538,-1911,12133,340,-463,-327
27090,-11540,-1906,12118,344,-446,-321
27100,-11526,-1905,12145,355,-443,-327
27110,-11519,-1911,12123,325,-438,-320
27120,-11516,-1904,12129,306,-424,-309
27130,-11528,-1923,12125,328,-443,-321
27140,-11503,-1906,12123,354,-449,-320
27150,-11530,-1918,12121,315,-434,-309
27160,-11506,-1914,12102,343,-440,-315
27170,-11528,-1913,12096,341,-451,-332
27180,-11528,-1906,12118,372,-446,-320
27190,-11518,-1919,12117,355,-436,-320
27200,-11546,-1913,12140,351,-437,-298
27210,-11547,-1907,12125,329,-441,-304
27220,-11538,-1895,12105,355,-458,-313
27230,-11523,-1907,12122,348,-450,-303
27240,-11521,-1890,12127,356,-452,-302
27250,-11504,-1889,12117,341,-436,-301
27260,-11564,-1944,12128,346,-441,-326
27270,-11594,-1938,12118,345,-444,-301
27280,-11599,-1929,12116,344,-460,-291
27290,-11421,-1855,12105,340,-467,-286
27300,-11449,-1855,12079,349,-476,-319
27310,-11520,-1880,12075,321,-432,-323
27320,-11560,-1904,12083,332,-430,-336
27330,-11499,-1887,12144,343,-414,-349
27340,-11546,-1868,12130,340,-428,-337
27350,-11611,-1900,12176,364,-457,-322
27360,-11588,-1911,12148,408,-561,-275
27370,-11560,-1915,12125,433,-600,-259
27380,-11572,-1921,12124,415,-604,-256
27390,-11600,-1928,12166,390,-580,-255
27400,-11538,-1931,12125,386,-563,-284
27410,-11508,-1897,12101,341,-555,-272
27420,-11445,-1872,12137,341,-553,-278
27430,-11504,-1889,12124,316,-530,-289
27440,-11468,-1877,12110,324,-515,-301
27450,-11454,-1888,12123,334,-507,-299
27460,-11452,-1890,12147,337,-520,-287
27470,-11464,-1915,12180,370,-543,-308
27480,-11501,-1902,12165,384,-529,-292
27490,-11481,-1908,12173,384,-507,-287
27500,-11482,-1905,12179,393,-504,-281
27510,-11498,-1903,12170,401,-494,-287
27520,-11525,-1904,12147,352,-469,-278
27530,-11528,-1915,12184,373,-498,-284
27540,-11584,-1868,12119,398,-517,-269
27550,-11448,-1836,12133,330,-468,-325
27560,-11418,-1833,12100,327,-404,-328
27570,-11478,-1853,12139,309,-366,-333
27580,-11487,-1833,12134,310,-351,-330
27590,-11523,-1893,12161,323,-389,-335
27600,-11494,-1898,12122,340,-417,-334
27610,-11505,-1899,12115,342,-437,-325
27620,-11481,-1884,12183,373,-476,-328
27630,-11503,-1891,12187,376,-487,-324
27640,-11514,-1865,12197,356,-496,-312
27650,-11494,-1893,12169,346,-474,-316
27660,-11541,-1904,12129,350,-453,-320
27670,-11513,-1897,12153,372,-449,-325
27680,-11497,-1900,12143,336,-431,-320
27690,-11476,-1884,12158,328,-415,-315
27700,-11515,-1890,12152,329,-430,-317
27710,-11547,-1914,12124,314,-419,-310
27720,-11494,-1905,12154,337,-449,-316
27730,-11478,-1883,12151,345,-448,-309
27740,-11511,-1897,12154,343,-466,-314
27750,-11492,-1885,12162,372,-481,-321
27760,-11516,-1876,12170,346,-446,-318
27770,-11495,-1854,12197,305,-399,-342
27780,-11487,-1835,12220,297,-367,-355
27790,-11497,-1819,12233,274,-318,-384
27800,-11515,-1857,12237,257,-267,-417
27810,-11553,-1912,12235,284,-208,-435
27820,-11564,-1919,12214,314,-246,-427
27830,-11558,-1963,12248,314,-244,-422
27840,-11687,-1981,12222,398,-337,-381
27850,-11671,-1981,12165,452,-389,-350
27860,-11657,-2016,12116,507,-469,-305
27870,-11582,-2013,12048,561,-557,-248
27880,-11490,-1950,11999,550,-681,-186
27890,-11497,-1905,11962,535,-723,-170
27900,-11480,-1882,12032,499,-725,-203
27910,-11467,-1833,12089,450,-664,-219
27920,-11458,-1838,12106,426,-607,-257
27930,-11479,-1790,12157,376,-472,-318
27940,-11452,-1796,12175,374,-433,-347
27950,-11455,-1789,12177,348,-406,-355
27960,-11508,-1787,12182,353,-392,-352
27970,-11523,-1815,12194,339,-527,-321
27980,-11506,-1826,12193,373,-579,-312
27990,-11547,-1851,12130,343,-591,-284
28000,-11501,-1873,12087,385,-706,-253
28010,-11439,-1854,12056,411,-739,-242
28020,-11367,-1828,12026,404,-730,-241
28030,-11286,-1800,12064,356,-655,-263
28040,-11314,-1815,12200,286,-494,-338
28050,-11383,-1780,12199,257,-438,-362
28060,-11355,-1796,12223,246,-378,-371
28070,-11425,-1835,12230,233,-282,-401
28080,-11477,-1840,12206,205,-226,-415
28090,-11445,-1860,12162,190,-199,-444
28100,-11375,-1848,12123,125,-144,-470
28110,-11235,-1803,11946,-79,30,-564
28120,-11142,-1809,11842,-152,193,-595
28130,-11180,-1834,11759,-282,602,-718
28140,-11350,-1899,11835,-403,813,-829
28150,-11789,-2070,12022,-491,1150,-915
28160,-11991,-2183,12053,-506,1183,-906
28170,-11858,-2183,12035,-499,678,-856
28180,-11732,-2181,11887,-524,859,-893
28190,-11711,-2197,11786,-540,848,-907
28200,-11669,-2198,11778,-565,714,-904
28210,-11659,-2270,11669,-637,668,-1023
28220,-11691,-2317,11634,-698,710,-1092
28230,-11730,-2349,11661,-781,796,-1174
28240,-11870,-2430,11721,-815,865,-1248
28250,-12272,-2601,11802,-659,846,-1141
28260,-12288,-2613,11882,-440,721,-978
28270,-12122,-2555,11914,-224,492,-803
28280,-11984,-2428,11860,-70,143,-655
28290,-12090,-2469,11760,-28,43,-597
28300,-12194,-2532,11717,23,-109,-524
28310,-12076,-2557,11691,107,-525,-378
28320,-12004,-2512,11614,272,-717,-313
28330,-11952,-2486,11569,347,-834,-251
28340,-11913,-2441,11566,442,-961,-178
28350,-11853,-2452,11536,441,-938,-170
28360,-11845,-2421,11568,451,-872,-171
28370,-11959,-2457,11576,445,-726,-198
28380,-11982,-2458,11631,437,-748,-168
28390,-11997,-2438,11682,459,-763,-176
28400,-11922,-2409,11702,475,-798,-196
28410,-11908,-2432,11726,454,-885,-215
28420,-11932,-2427,11759,390,-894,-214
28430,-11919,-2430,11765,402,-912,-216
28440,-11790,-2409,11740,367,-830,-233
28450,-11752,-2408,11689,367,-786,-263
28460,-11732,-2426,11690,337,-726,-277
28470,-11733,-2429,11767,382,-639,-273
28480,-11718,-2420,11800,371,-616,-309
28490,-11758,-2442,11786,348,-581,-320
28500,-11818,-2459,11791,340,-550,-311
28510,-11828,-2450,11819,388,-539,-282
28520,-11834,-2432,11841,399,-545,-265
28530,-11826,-2430,11827,443,-574,-252
28540,-11856,-2450,11824,516,-654,-235
28550,-11847,-2429,11823,521,-681,-201
28560,-11826,-2400,11806,548,-700,-183
28570,-11800,-2345,11767,581,-667,-173
28580,-11806,-2339,11804,597,-659,-169
28590,-11817,-2348,11821,613,-692,-166
28600,-11753,-2327,11794,621,-705,-162
28610,-11695,-2289,11773,588,-693,-161
28620,-11684,-2301,11777,527,-646,-182
28630,-11749,-2328,11832,514,-561,-209
28640,-11766,-2332,11861,520,-548,-219
28650,-11725,-2318,11870,539,-556,-227
28660,-11737,-2315,11888,563,-572,-217
28670,-11750,-2297,11878,593,-583,-208
28680,-11717,-2311,11898,578,-594,-204
28690,-11680,-2238,11867,577,-595,-208
28700,-11682,-2230,11865,551,-573,-198
28710,-11685,-2225,11846,557,-576,-216
28720,-11724,-2219,11844,553,-571,-241
28730,-11722,-2214,11835,526,-559,-227
28740,-11735,-2226,11837,523,-539,-224
28750,-11729,-2230,11823,532,-530,-219
28760,-11739,-2220,11846,518,-527,-215
28770,-11730,-2204,11872,518,-526,-223
28780,-11732,-2192,11853,492,-517,-229
28790,-11700,-2187,11859,469,-474,-254
28800,-11702,-2184,11867,444,-433,-260
28810,-11678,-2178,11810,434,-397,-288
28820,-11676,-2179,11855,390,-379,-306
28830,-11705,-2187,11878,370,-342,-306
28840,-11719,-2215,11880,397,-330,-310
28850,-11714,-2207,11841,376,-309,-313
28860,-11726,-2219,11844,381,-300,-307
28870,-11737,-2220,11878,343,-299,-309
28880,-11736,-2232,11869,394,-299,-309
28890,-11733,-2206,11824,394,-302,-293
28900,-11721,-2197,11802,379,-318,-293
28910,-11751,-2223,11844,368,-325,-292
28920,-11757,-2246,11836,373,-317,-306
28930,-11728,-2236,11833,378,-309,-296
28940,-11726,-2217,11847,373,-302,-296
28950,-11782,-2226,11838,362,-296,-313
28960,-11824,-2236,11847,380,-292,-291
28970,-11806,-2221,11848,386,-305,-291
28980,-11772,-2203,11871,383,-314,-298
28990,-11719,-2172,11798,392,-256,-301
29000,-11777,-2193,11771,392,-248,-336
29010,-11792,-2205,11777,378,-246,-324
29020,-11784,-2175,11832,380,-246,-343
29030,-11835,-2186,11839,362,-251,-364
29040,-11885,-2243,11856,380,-309,-349
29050,-11879,-2186,11770,377,-321,-309
29060,-11888,-2219,11809,386,-409,-306
29070,-11874,-2209,11834,393,-435,-319
29080,-11941,-2214,11793,389,-497,-317
29090,-11888,-2191,11797,389,-507,-302
29100,-11824,-2187,11737,381,-531,-304
29110,-11756,-2157,11723,390,-484,-317
29120,-11740,-2168,11721,385,-415,-308
29130,-11755,-2138,11701,389,-398,-320
29140,-11752,-2156,11758,350,-401,-314
29150,-11742,-2173,11813,338,-364,-324
29160,-11758,-2174,11807,350,-358,-326
29170,-11736,-2228,11871,349,-361,-338
29180,-11762,-2176,11741,372,-376,-335
29190,-11712,-2191,11773,341,-380,-317
29200,-11733,-2207,11730,339,-366,-311
29210,-11769,-2231,11724,339,-346,-300
29220,-11838,-2216,11704,348,-347,-300
29230,-11869,-2192,11757,343,-361,-290
29240,-11809,-2193,11769,335,-353,-293
29250,-11838,-2212,11711,336,-336,-301
29260,-11856,-2199,11717,346,-342,-306
29270,-11889,-2216,11740,347,-416,-296
29280,-11878,-2229,11728,350,-438,-278
29290,-11890,-2198,11745,349,-482,-270
29300,-11848,-2190,11780,367,-537,-275
29310,-11834,-2171,11804,391,-571,-268
29320,-11837,-2184,11806,406,-569,-253
29330,-11847,-2160,11801,387,-549,-246
29340,-11851,-2169,11777,399,-561,-251
29350,-11829,-2176,11782,378,-546,-245
29360,-11832,-2149,11784,380,-554,-248
29370,-11844,-2171,11750,381,-563,-245
29380,-11818,-2174,11755,405,-593,-280
29390,-11827,-2165,11786,378,-577,-277
29400,-11824,-2150,11809,372,-582,-283
29410,-11819,-2180,11805,382,-578,-275
29420,-11800,-2169,11812,387,-589,-253
29430,-11761,-2143,11816,388,-600,-249
29440,-11754,-2137,11832,403,-601,-249
29450,-11765,-2144,11802,397,-587,-246
29460,-11767,-2139,11814,379,-557,-239
29470,-11768,-2121,11800,378,-553,-274
29480,-11762,-2117,11832,348,-481,-297
29490,-11774,-2130,11837,352,-476,-302
29500,-11759,-2123,11834,372,-475,-294
29510,-11768,-2122,11825,338,-473,-290
29520,-11777,-2126,11828,347,-486,-291
29530,-11768,-2123,11824,367,-490,-284
29540,-11762,-2149,11824,330,-475,-265
29550,-11798,-2134,11818,374,-481,-281
29560,-11766,-2130,11826,373,-477,-291
29570,-11797,-2115,11836,348,-461,-290
29580,-11780,-2127,11833,338,-458,-306
29590,-11788,-2123,11830,329,-461,-312
29600,-11788,-2112,11812,330,-449,-306
29610,-11767,-2109,11833,320,-458,-328
29620,-11792,-2114,11823,327,-466,-323
29630,-11782,-2116,11795,340,-471,-318
29640,-11773,-2105,11862,373,-462,-319
29650,-11759,-2100,11845,329,-463,-294
29660,-11754,-2122,11836,358,-475,-317
29670,-11779,-2134,11840,389,-485,-310
29680,-11771,-2143,11848,371,-473,-282
29690,-11769,-2145,11849,369,-466,-275
29700,-11761,-2161,11821,361,-467,-289
29710,-11773,-2171,11826,343,-447,-285
29720,-11820,-2197,11852,360,-455,-287
29730,-11801,-2149,11835,394,-487,-260
29740,-11747,-2112,11837,397,-493,-259
29750,-11672,-2101,11839,387,-484,-270
29760,-11688,-2095,11800,375,-450,-292
29770,-11814,-2123,11797,379,-417,-305
29780,-11768,-2126,11819,374,-428,-329
29790,-11762,-2083,11847,372,-430,-320
29800,-11804,-2086,11852,399,-460,-299
29810,-11832,-2092,11876,406,-465,-266
29820,-11806,-2113,11877,392,-492,-254
29830,-11845,-2138,11868,389,-537,-224
29840,-11889,-2140,11865,377,-551,-223
29850,-11877,-2146,11842,377,-569,-223
29860,-11753,-2094,11802,382,-615,-232
29870,-11734,-2093,11822,393,-615,-235
29880,-11726,-2076,11793,381,-593,-239
29890,-11734,-2062,11814,351,-595,-248
29900,-11717,-2072,11804,327,-561,-282
29910,-11698,-2070,11833,321,-552,-276
29920,-11690,-2085,11853,332,-537,-289
29930,-11746,-2104,11882,314,-554,-277
29940,-11756,-2098,11880,338,-557,-285
29950,-11731,-2096,11897,338,-567,-278
29960,-11721,-2096,11906,358,-552,-267
29970,-11737,-2088,11883,364,-538,-258
29980,-11730,-2086,11895,358,-526,-263
29990,-11755,-2076,11870,345,-525,-279
30000,-11719,-2063,11881,320,-494,-274
30010,-11655,-2069,11850,330,-462,-300
30020,-11690,-2070,11858,323,-438,-315
30030,-11715,-2054,11879,322,-401,-319
30040,-11772,-2077,11879,303,-394,-320
30050,-11777,-2093,11876,324,-409,-314
30060,-11765,-2092,11883,350,-459,-325
30070,-11743,-2089,11873,356,-462,-324
30080,-11744,-2078,11896,363,-464,-318
30090,-11748,-2087,11888,348,-475,-294
30100,-11761,-2084,11873,340,-463,-289
30110,-11773,-2097,11869,331,-451,-284
30120,-11768,-2098,11884,332,-441,-296
30130,-11761,-2098,11875,358,-454,-315
30140,-11757,-2087,11880,357,-459,-321
30150,-11734,-2078,11885,366,-459,-322
30160,-11718,-2088,11865,323,-440,-316
30170,-11724,-2084,11850,346,-437,-311
30180,-11749,-2096,11902,335,-440,-309
30190,-11741,-2094,11898,355,-444,-296
30200,-11750,-2117,11880,343,-453,-301
30210,-11732,-2086,11870,373,-462,-298
30220,-11742,-2088,11867,368,-453,-299
30230,-11746,-2073,11863,350,-450,-300
30240,-11756,-2079,11859,349,-440,-307
30250,-11738,-2087,11873,359,-428,-320
30260,-11729,-2084,11873,332,-408,-318
30270,-11732,-2078,11895,315,-391,-317
30280,-11705,-2066,11883,351,-369,-331
30290,-11742,-2072,11895,339,-369,-333
30300,-11727,-2079,11892,339,-370,-331
30310,-11766,-2079,11886,364,-362,-320
30320,-11779,-2074,11888,355,-379,-325
30330,-11762,-2088,11900,351,-372,-324
30340,-11768,-2088,11914,359,-365,-318
30350,-11750,-2081,11856,346,-345,-318
30360,-11759,-2096,11850,361,-341,-334
30370,-11756,-2077,11833,383,-346,-333
30380,-11799,-2087,11849,354,-367,-328
30390,-11790,-2086,11844,364,-392,-327
30400,-11786,-2073,11820,358,-424,-327
30410,-11765,-2069,11844,346,-450,-322
30420,-11779,-2067,11838,334,-419,-328
30430,-11786,-2085,11822,354,-427,-341
